millis;micros;d1;d2;accx;accy;accz;hgx;hgy;hgz;gyrox;gyroy;gyroz
12255;12256320;6378976;8420320;-0.06;1.052;-0.272;0.164;0.5125;-0.164;-1;-1;-1
12267;12267632;6385120;8420320;-0.056;1.048;-0.26;0.1845;0.4715;-0.123;-1;-1;-1
12279;12279888;6383584;8420320;-0.052;1.044;-0.288;0.1435;0.533;-0.082;-1;-1;-1
12290;12290360;6387680;8420320;-0.052;1.036;-0.268;0.1435;0.615;0.041;-1;-1;-1
12302;12302536;6386144;8420320;-0.068;1.072;-0.296;0.1845;0.492;-0.1025;-1;-1;-1
12314;12314704;6380512;8420320;-0.064;1.048;-0.24;0.2255;0.3895;-0.041;-1;-1;-1
12326;12327752;6383584;8420320;-0.06;1.052;-0.284;0.1435;0.533;-0.123;-1;-1;-1
12337;12337328;6386144;8420320;-0.068;1.036;-0.324;0.1845;0.492;-0.1025;-1;-1;-1
12349;12349536;6380512;8420320;-0.052;1.048;-0.28;0.164;0.5125;-0.082;-1;-1;-1
12361;12362616;6384608;8431072;-0.056;1.036;-0.28;0.2255;0.492;-0.1435;-1;-1;-1
12374;12374824;6381024;8431072;-0.056;1.048;-0.276;0.1435;0.451;-0.164;-1;-1;-1
12386;12387024;6383072;8431072;-0.052;1.052;-0.288;0.1435;0.533;-0.0615;-1;-1;-1
12398;12399216;6384096;8431072;-0.052;1.04;-0.276;0.164;0.451;-0.164;-1;-1;-1
12410;12411424;6382560;8431072;-0.06;1.044;-0.276;0.1025;0.5535;-0.164;-1;-1;-1
12421;12421856;6387680;8431072;-0.06;1.04;-0.288;0.164;0.5125;0.0205;-1;-1;-1
12433;12434064;6386144;8431072;-0.044;1.06;-0.276;0.205;0.3895;-0.1435;-1;-1;-1
12445;12446272;6384608;8431072;-0.06;1.056;-0.268;0.164;0.5125;-0.1845;-1;-1;-1
12457;12458480;6383072;8431072;-0.052;1.04;-0.288;0.1435;0.5125;-0.123;-1;-1;-1
12468;12468936;6383072;8437728;-0.06;1.052;-0.288;0.164;0.533;-0.1435;-1;-1;-1
12480;12481136;6387680;8437728;-0.052;1.06;-0.288;0.164;0.5945;-0.1435;-1;-1;-1
12492;12493328;6382048;8437728;-0.064;1.068;-0.28;0.123;0.4715;-0.0615;-1;-1;-1
12503;12503768;6384608;8437728;-0.044;1.036;-0.276;0.164;0.5125;-0.1435;-1;-1;-1
12515;12515984;6383584;8437728;-0.04;1.044;-0.28;0.1845;0.492;-0.1025;-1;-1;-1
12527;12528216;6382048;8437728;-0.044;1.032;-0.28;0.2255;0.451;-0.041;-1;-1;-1
12539;12540400;6385120;8437728;-0.048;1.04;-0.292;0.1845;0.492;-0.1025;-1;-1;-1
12550;12550848;6380512;8437728;-0.048;1.048;-0.28;0.1435;0.5125;-0.1025;-1;-1;-1
12562;12563960;6378976;8440288;-0.06;1.048;-0.256;0.205;0.451;-0.164;-1;-1;-1
12574;12575296;6381536;8440288;-0.06;1.056;-0.252;0.1845;0.328;-0.1435;-1;-1;-1
12587;12587472;6385120;8440288;-0.056;1.044;-0.272;0.205;0.492;-0.082;-1;-1;-1
12599;12599696;6384096;8440288;-0.052;1.048;-0.276;0.1845;0.5535;-0.0615;-1;-1;-1
12611;12611872;6384096;8440288;-0.06;1.04;-0.272;0.2255;0.4715;-0.123;-1;-1;-1
12623;12624104;6384096;8440288;-0.072;1.056;-0.292;0.164;0.5125;-0.123;-1;-1;-1
12634;12634568;6380000;8440288;-0.052;1.044;-0.288;0.2255;0.574;-0.0205;-1;-1;-1
12646;12646760;6382560;8440288;-0.064;1.048;-0.276;0.205;0.533;-0.1025;-1;-1;-1
12658;12658912;6382048;8440288;-0.06;1.04;-0.28;0.164;0.4715;-0.164;-1;-1;-1
12670;12671120;6384608;8442336;-0.068;1.052;-0.284;0.2255;0.4715;-0.123;-1;-1;-1
12681;12681576;6380000;8442336;-0.044;1.028;-0.288;0.1845;0.5125;-0.082;-1;-1;-1
12693;12693752;6383072;8442336;-0.048;1.052;-0.276;0.164;0.492;-0.1025;-1;-1;-1
12705;12705928;6382048;8442336;-0.044;1.048;-0.28;0.164;0.5535;-0.082;-1;-1;-1
12716;12716424;6384096;8442336;-0.052;1.04;-0.272;0.1845;0.451;-0.1435;-1;-1;-1
12728;12728624;6385632;8442336;-0.064;1.044;-0.268;0.1435;0.492;-0.1435;-1;-1;-1
12740;12740808;6386656;8442336;-0.044;1.048;-0.264;0.164;0.533;-0.123;-1;-1;-1
12752;12752968;6383072;8442336;-0.04;1.044;-0.276;0.123;0.451;-0.1435;-1;-1;-1
12763;12763376;6379488;8442336;-0.052;1.048;-0.268;0.328;0.41;-0.1435;-1;-1;-1
12775;12775616;6379488;8443872;-0.056;1.044;-0.288;0.1845;0.533;-0.1025;-1;-1;-1
12787;12787808;6385120;8443872;-0.04;1.044;-0.264;0.205;0.4715;-0.082;-1;-1;-1
12800;12800056;6385632;8443872;-0.06;1.052;-0.276;0.164;0.5125;-0.1435;-1;-1;-1
12812;12813096;6386144;8443872;-0.06;1.052;-0.264;0.123;0.533;-0.1435;-1;-1;-1
12824;12825256;6382560;8443872;-0.052;1.048;-0.284;0.1025;0.492;-0.0615;-1;-1;-1
12836;12837448;6380512;8443872;-0.04;1.032;-0.264;0.1845;0.4715;-0.2665;-1;-1;-1
12847;12847888;6377952;8443872;-0.056;1.056;-0.28;0.1845;0.5125;-0.1845;-1;-1;-1
12859;12860056;6384608;8443872;-0.048;1.044;-0.272;0.164;0.4715;-0.0615;-1;-1;-1
12871;12872296;6383072;8443872;-0.056;1.048;-0.284;0.1845;0.4715;-0.1845;-1;-1;-1
12883;12884480;6381536;8443872;-0.06;1.04;-0.28;0.164;0.451;-0.123;-1;-1;-1
12894;12894920;6381536;8443872;-0.056;1.052;-0.268;0.2255;0.5535;-0.1025;-1;-1;-1
12906;12907144;6380000;8443872;-0.04;1.044;-0.272;0.1845;0.5125;-0.0615;-1;-1;-1
12918;12919352;6385120;8443872;-0.06;1.056;-0.244;0.205;0.4715;-0.1435;-1;-1;-1
12929;12929816;6383584;8443872;-0.064;1.044;-0.276;0.164;0.4715;-0.205;-1;-1;-1
12941;12942040;6379488;8443872;-0.048;1.048;-0.272;0.1845;0.492;0;-1;-1;-1
12953;12954232;6382560;8443872;-0.056;1.04;-0.268;0.205;0.492;-0.369;-1;-1;-1
12965;12966424;6380512;8443872;-0.044;1.048;-0.288;0.164;0.5125;-0.123;-1;-1;-1
12976;12976904;6382560;8444384;-0.06;1.044;-0.252;0.246;0.41;-0.1435;-1;-1;-1
12988;12989096;6385632;8444384;-0.044;1.04;-0.268;0.2665;0.5125;-0.0615;-1;-1;-1
13000;13001328;6377440;8444384;-0.064;1.04;-0.28;0.164;0.4715;-0.1435;-1;-1;-1
13012;13013536;6382560;8444384;-0.056;1.044;-0.268;0.164;0.492;-0.041;-1;-1;-1
13023;13023952;6383072;8444384;-0.052;1.052;-0.256;0.205;0.533;-0.1435;-1;-1;-1
13035;13036152;6384608;8444384;-0.048;1.036;-0.264;0.1435;0.4715;-0.123;-1;-1;-1
13047;13048408;6381536;8444384;-0.056;1.04;-0.26;0.164;0.533;-0.123;-1;-1;-1
13058;13058896;6382048;8444384;-0.06;1.056;-0.236;0.246;0.5535;-0.164;-1;-1;-1
13070;13071968;6382560;8443872;-0.06;1.06;-0.268;0.164;0.5125;-0.164;-1;-1;-1
13082;13083296;6378976;8443872;-0.052;1.04;-0.276;0.164;0.451;0.0205;-1;-1;-1
13094;13095480;6382560;8443872;-0.052;1.044;-0.28;0.1845;0.5535;-0.041;-1;-1;-1
13105;13105944;6383072;8443872;-0.048;1.036;-0.272;0.1845;0.533;-0.1025;-1;-1;-1
13117;13118152;6377952;8443872;-0.064;1.048;-0.276;0.205;0.4305;-0.0615;-1;-1;-1
13129;13130352;6381024;8443872;-0.044;1.04;-0.272;0.246;0.5125;-0.1435;-1;-1;-1
13142;13142560;6382560;8443872;-0.056;1.064;-0.3;0.1845;0.4715;-0.082;-1;-1;-1
13154;13154760;6382048;8443872;-0.048;1.036;-0.272;0.123;0.5125;-0.1845;-1;-1;-1
13166;13166952;6382560;8443872;-0.048;1.04;-0.276;0.123;0.5125;-0.0205;-1;-1;-1
13178;13179144;6384608;8443872;-0.06;1.052;-0.268;0.205;0.533;-0.082;-1;-1;-1
13189;13189624;6382560;8443872;-0.056;1.04;-0.272;0.164;0.492;-0.082;-1;-1;-1
13201;13201816;6381024;8443872;-0.048;1.036;-0.264;0.205;0.451;-0.1025;-1;-1;-1
13213;13214016;6386144;8443872;-0.068;1.056;-0.276;0.164;0.451;-0.1435;-1;-1;-1
13225;13226208;6385632;8443872;-0.064;1.048;-0.272;0.164;0.5125;-0.1845;-1;-1;-1
13236;13236640;6381024;8443872;-0.052;1.016;-0.256;0.164;0.41;-0.164;-1;-1;-1
13248;13248888;6381536;8443872;-0.056;1.052;-0.28;0.164;0.4305;-0.123;-1;-1;-1
13260;13261144;6383072;8443872;-0.04;1.044;-0.272;0.205;0.4715;-0.1025;-1;-1;-1
13271;13271608;6381024;8443872;-0.052;1.056;-0.26;0.123;0.533;-0.1845;-1;-1;-1
13283;13283840;6381024;8443872;-0.064;1.048;-0.264;0.2255;0.41;-0.205;-1;-1;-1
13295;13296056;6386656;8443872;-0.064;1.068;-0.276;0.205;0.5535;-0.1845;-1;-1;-1
13307;13308280;6386656;8443872;-0.072;1.08;-0.292;0.164;0.492;-0.1435;-1;-1;-1
13318;13318728;6380000;8443872;-0.048;1.04;-0.26;0.041;0.656;-0.041;-1;-1;-1
13330;13330928;6381024;8443872;-0.064;1.052;-0.268;0.2255;0.5535;-0.041;-1;-1;-1
13342;13343136;6385632;8443872;-0.056;1.044;-0.26;0.205;0.4305;-0.246;-1;-1;-1
13355;13355328;6380512;8443872;-0.056;1.048;-0.284;0.1435;0.4715;-0.164;-1;-1;-1
13367;13367536;6384096;8443872;-0.056;1.052;-0.292;0.2255;0.451;-0.123;-1;-1;-1
13379;13379768;6383584;8443872;-0.048;1.048;-0.28;0.246;0.492;-0.164;-1;-1;-1
13391;13391960;6382048;8443872;-0.052;1.044;-0.26;0.164;0.5535;-0.123;-1;-1;-1
13402;13402440;6380000;8443872;-0.044;1.044;-0.272;0.164;0.533;-0.164;-1;-1;-1
13414;13414656;6380000;8443872;-0.044;1.048;-0.276;0.164;0.492;-0.082;-1;-1;-1
13426;13426848;6385632;8443872;-0.056;1.052;-0.292;0.1025;0.5535;-0.123;-1;-1;-1
13438;13439096;6380000;8443872;-0.056;1.056;-0.24;0.1845;0.5535;-0.041;-1;-1;-1
13449;13449576;6380512;8443872;-0.056;1.056;-0.272;0.1845;0.4305;-0.1435;-1;-1;-1
13461;13461760;6381024;8443872;-0.068;1.06;-0.316;0.205;0.4715;-0.123;-1;-1;-1
13473;13473960;6381536;8443872;-0.068;1.068;-0.264;0.1845;0.451;-0.0615;-1;-1;-1
13484;13484440;6380512;8443360;-0.044;1.032;-0.272;0.1845;0.5535;-0.082;-1;-1;-1
13496;13496624;6384096;8443360;-0.064;1.036;-0.276;0.205;0.451;-0.1025;-1;-1;-1
13508;13508784;6378976;8443360;-0.052;1.044;-0.272;0.1435;0.492;-0.1845;-1;-1;-1
13520;13521008;6383072;8443360;-0.06;1.048;-0.284;0.205;0.492;-0.1435;-1;-1;-1
13531;13531448;6379488;8443360;-0.036;1.036;-0.284;0.205;0.451;-0.1435;-1;-1;-1
13543;13543648;6380512;8443360;-0.056;1.048;-0.244;0.1435;0.5125;-0.123;-1;-1;-1
13555;13555856;6382560;8443360;-0.048;1.048;-0.264;0.205;0.492;-0.205;-1;-1;-1
13568;13568088;6382048;8443360;-0.056;1.056;-0.284;0.164;0.492;-0.123;-1;-1;-1
13580;13580360;6385120;8442848;-0.056;1.04;-0.28;0.2255;0.4715;-0.246;-1;-1;-1
13592;13593440;6381536;8442848;-0.04;1.044;-0.284;0.205;0.451;-0.1435;-1;-1;-1
13604;13605592;6384096;8442848;-0.048;1.048;-0.304;0.2255;0.5125;-0.287;-1;-1;-1
13615;13615216;6382048;8442848;-0.032;1.048;-0.288;0.1435;0.4715;-0.164;-1;-1;-1
13627;13628280;6383584;8442848;-0.056;1.056;-0.288;0.205;0.492;-0.164;-1;-1;-1
13639;13640464;6381024;8442848;-0.052;1.056;-0.268;0.1025;0.5125;-0.123;-1;-1;-1
13651;13652664;6383584;8442848;-0.048;1.04;-0.276;0.205;0.4715;-0.1845;-1;-1;-1
13662;13662280;6379488;8442848;-0.056;1.048;-0.256;0.123;0.5125;-0.123;-1;-1;-1
13674;13675328;6384608;8442848;-0.048;1.084;-0.264;0.287;0.4715;-0.1435;-1;-1;-1
13686;13687568;6384608;8442336;-0.064;1.048;-0.3;0.1025;0.4715;-0.164;-1;-1;-1
13697;13697200;6386656;8442336;-0.052;1.044;-0.284;0.164;0.492;-0.1025;-1;-1;-1
13709;13709408;6384096;8442336;-0.052;1.052;-0.268;0.1025;0.4715;-0.123;-1;-1;-1
13721;13722472;6382560;8442336;-0.048;1.044;-0.288;0.164;0.492;-0.205;-1;-1;-1
13733;13734640;6385632;8442336;-0.06;1.048;-0.28;0.1845;0.451;-0.0205;-1;-1;-1
13744;13744240;6382560;8442336;-0.048;1.04;-0.272;0.205;0.3895;-0.0615;-1;-1;-1
13756;13757304;6384608;8442336;-0.056;1.036;-0.28;0.205;0.4715;-0.1025;-1;-1;-1
13768;13769496;6383072;8442336;-0.06;1.052;-0.288;0.2255;0.369;-0.1025;-1;-1;-1
13780;13781728;6381536;8442336;-0.06;1.06;-0.256;0.123;0.5125;-0.2665;-1;-1;-1
13791;13791344;6380512;8442336;-0.064;1.044;-0.296;0.1845;0.4715;-0.1435;-1;-1;-1
13803;13803576;6376928;8442336;-0.06;1.064;-0.296;0.1845;0.4715;-0.3075;-1;-1;-1
13815;13816640;6378464;8442336;-0.052;1.04;-0.268;0.2665;0.492;-0.164;-1;-1;-1
13826;13826248;6381536;8442336;-0.072;1.056;-0.272;0.1435;0.492;-0.082;-1;-1;-1
13838;13838424;6380512;8442336;-0.06;1.052;-0.276;0.205;0.4715;-0.1025;-1;-1;-1
13850;13851464;6380512;8442336;-0.052;1.048;-0.284;0.1845;0.492;-0.0615;-1;-1;-1
13862;13863672;6381024;8442336;-0.064;1.06;-0.26;0.2255;0.4305;-0.123;-1;-1;-1
13873;13873320;6382560;8442336;-0.056;1.044;-0.264;0.123;0.492;-0.1435;-1;-1;-1
13885;13885488;6378464;8442336;-0.056;1.052;-0.276;0.1845;0.492;-0.1845;-1;-1;-1
13897;13898608;6381536;8441824;-0.052;1.048;-0.288;0.2255;0.41;-0.1025;-1;-1;-1
13910;13910760;6377952;8441824;-0.056;1.044;-0.272;0.1435;0.451;-0.123;-1;-1;-1
13922;13922968;6384096;8441824;-0.048;1.048;-0.284;0.205;0.4715;-0.041;-1;-1;-1
13934;13935176;6382048;8441824;-0.04;1.028;-0.284;0.2665;0.492;-0.123;-1;-1;-1
13946;13947376;6379488;8441824;-0.056;1.056;-0.272;0.1845;0.5125;-0.1025;-1;-1;-1
13957;13957800;6382560;8441824;-0.06;1.06;-0.288;0.1845;0.492;-0.164;-1;-1;-1
13969;13970000;6384096;8441824;-0.056;1.04;-0.272;0.1845;0.5125;-0.123;-1;-1;-1
13981;13982224;6386144;8441824;-0.048;1.044;-0.272;0.246;0.492;-0.041;-1;-1;-1
13993;13994440;6385632;8441312;-0.048;1.032;-0.28;0.123;0.5125;-0.1025;-1;-1;-1
14004;14004920;6386144;8441312;-0.056;1.048;-0.296;0.205;0.492;-0.041;-1;-1;-1
14016;14017128;6385632;8441312;-0.052;1.044;-0.252;0.123;0.492;-0.082;-1;-1;-1
14028;14029288;6381536;8441312;-0.052;1.044;-0.292;0.123;0.4715;-0.1025;-1;-1;-1
14039;14039704;6380512;8441312;-0.044;1.044;-0.288;0.123;0.492;0;-1;-1;-1
14051;14051936;6383584;8441312;-0.052;1.044;-0.276;0.164;0.492;-0.164;-1;-1;-1
14063;14064112;6382560;8441312;-0.036;1.036;-0.288;0.1435;0.5535;-0.123;-1;-1;-1
14075;14076304;6382560;8441312;-0.052;1.044;-0.276;0.123;0.533;-0.1025;-1;-1;-1
14086;14086800;6385632;8441312;-0.052;1.048;-0.28;0.287;0.492;-0.287;-1;-1;-1
14098;14099064;6380512;8440800;-0.048;1.044;-0.252;0.2255;0.4715;-0.1845;-1;-1;-1
14110;14111288;6380000;8440800;-0.052;1.04;-0.268;0.205;0.492;-0.123;-1;-1;-1
14123;14123480;6384608;8440800;-0.032;1.036;-0.284;0.2255;0.5125;-0.123;-1;-1;-1
14135;14135704;6381536;8440800;-0.048;1.056;-0.284;0.1845;0.492;-0.164;-1;-1;-1
14147;14147912;6381536;8440800;-0.056;1.052;-0.268;0.205;0.4715;0;-1;-1;-1
14159;14160096;6381536;8440800;-0.052;1.048;-0.264;0.164;0.533;-0.123;-1;-1;-1
14170;14170592;6384608;8440800;-0.056;1.064;-0.268;0.082;0.5535;-0.0615;-1;-1;-1
14182;14182832;6386144;8440800;-0.052;1.048;-0.288;0.1435;0.533;-0.1435;-1;-1;-1
14194;14195080;6380512;8440288;-0.056;1.044;-0.28;0.205;0.4305;-0.1025;-1;-1;-1
14206;14207288;6381536;8440288;-0.04;1.036;-0.28;0.123;0.4715;-0.164;-1;-1;-1
14217;14217728;6385632;8440288;-0.06;1.048;-0.28;0.164;0.492;-0.1435;-1;-1;-1
14229;14229944;6382560;8440288;-0.04;1.036;-0.284;0.164;0.4715;-0.1435;-1;-1;-1
14241;14242152;6380512;8440288;-0.068;1.056;-0.284;0.2255;0.5125;-0.164;-1;-1;-1
14252;14252600;6384608;8440288;-0.052;1.056;-0.292;0.123;0.451;-0.041;-1;-1;-1
14264;14264800;6380512;8440288;-0.052;1.052;-0.292;0.164;0.451;-0.1435;-1;-1;-1
14276;14276984;6386144;8440288;-0.048;1.032;-0.256;0.246;0.4715;-0.1025;-1;-1;-1
14288;14289216;6384096;8440288;-0.036;1.048;-0.28;0.205;0.451;-0.123;-1;-1;-1
14299;14299648;6385632;8439776;-0.06;1.044;-0.284;0.205;0.492;-0.082;-1;-1;-1
14311;14311888;6386144;8439776;-0.056;1.036;-0.296;0.1845;0.5125;-0.041;-1;-1;-1
14323;14324128;6380512;8439776;-0.048;1.036;-0.264;0.2255;0.451;-0.123;-1;-1;-1
14336;14336360;6383072;8439776;-0.06;1.06;-0.268;0.164;0.492;-0.1845;-1;-1;-1
14348;14348520;6384608;8439776;-0.056;1.036;-0.284;0.164;0.574;-0.0615;-1;-1;-1
14360;14360696;6386144;8439776;-0.052;1.044;-0.276;0.164;0.492;-0.123;-1;-1;-1
14372;14373736;6383584;8439776;-0.06;1.056;-0.288;0.1025;0.492;-0.1025;-1;-1;-1
14383;14383368;6378976;8439776;-0.06;1.048;-0.276;0.1845;0.451;-0.0205;-1;-1;-1
14395;14395568;6380000;8439264;-0.048;1.048;-0.288;0.1845;0.4715;-0.1025;-1;-1;-1
14407;14407768;6383072;8439264;-0.06;1.044;-0.268;0.2665;0.451;-0.164;-1;-1;-1
14419;14420856;6384096;8439264;-0.04;1.036;-0.28;0.123;0.5535;-0.0615;-1;-1;-1
14430;14430408;6378976;8439264;-0.06;1.052;-0.28;0.205;0.41;-0.205;-1;-1;-1
14442;14442632;6384096;8439264;-0.052;1.052;-0.288;0.164;0.4715;-0.123;-1;-1;-1
14454;14455688;6386656;8439264;-0.056;1.048;-0.292;0.1845;0.4305;-0.0615;-1;-1;-1
14465;14465296;6385120;8439264;-0.056;1.048;-0.28;0.164;0.4715;-0.123;-1;-1;-1
14477;14477456;6384096;8439264;-0.06;1.044;-0.264;0.246;0.451;-0.1025;-1;-1;-1
14489;14490464;6384096;8439264;-0.052;1.044;-0.272;0.0615;0.6355;-0.164;-1;-1;-1
14501;14502720;6386144;8439264;-0.048;1.048;-0.296;0.164;0.5125;-0.1025;-1;-1;-1
14512;14512304;6382560;8439264;-0.056;1.044;-0.264;0.2255;0.3895;-0.1845;-1;-1;-1
14524;14524472;6380000;8439264;-0.056;1.036;-0.272;0.205;0.4715;-0.1435;-1;-1;-1
14536;14537600;6384096;8439264;-0.06;1.06;-0.26;0.123;0.5945;-0.123;-1;-1;-1
14548;14549800;6386656;8439264;-0.056;1.06;-0.272;0.1435;0.533;-0.1435;-1;-1;-1
14559;14559376;6382048;8439264;-0.068;1.072;-0.296;0.1435;0.5535;-0.082;-1;-1;-1
14571;14572408;6381536;8439264;-0.052;1.044;-0.304;0.123;0.533;-0.1025;-1;-1;-1
14583;14584632;6383584;8439264;-0.06;1.056;-0.244;0.1845;0.451;0;-1;-1;-1
14594;14594224;6379488;8439264;-0.048;1.044;-0.304;0.2255;0.492;-0.1845;-1;-1;-1
14606;14606448;6381536;8438752;-0.06;1.056;-0.324;0.205;0.5125;-0.164;-1;-1;-1
14618;14618680;6380512;8438752;-0.064;1.056;-0.268;0.205;0.492;-0.0615;-1;-1;-1
14630;14631744;6384608;8438752;-0.04;1.036;-0.272;0.123;0.492;-0.1025;-1;-1;-1
14641;14641328;6389728;8438752;-0.048;1.064;-0.264;0.205;0.492;-0.082;-1;-1;-1
14653;14653536;6381536;8438752;-0.036;1.048;-0.292;0.1845;0.492;-0.0615;-1;-1;-1
14665;14665784;6380512;8438752;-0.048;1.036;-0.28;0.205;0.492;-0.1845;-1;-1;-1
14678;14678824;6382560;8438752;-0.052;1.044;-0.28;0.164;0.492;-0.1025;-1;-1;-1
14690;14691016;6385632;8438752;-0.072;1.052;-0.28;0.123;0.533;-0.082;-1;-1;-1
14702;14703232;6381024;8437728;-0.056;1.052;-0.276;0.2665;0.492;-0.0205;-1;-1;-1
14714;14715456;6376416;8437728;-0.06;1.028;-0.248;0.2255;0.41;-0.0615;-1;-1;-1
14725;14725920;6382048;8437728;-0.056;1.04;-0.256;0.2665;0.5125;-0.2665;-1;-1;-1
14737;14738088;6386144;8437728;-0.06;1.076;-0.292;0.246;0.41;-0.082;-1;-1;-1
14749;14750336;6382560;8437728;-0.06;1.044;-0.288;0.205;0.4715;-0.1025;-1;-1;-1
14761;14762576;6384096;8437728;-0.056;1.052;-0.264;0.246;0.451;-0.0205;-1;-1;-1
14772;14773024;6381024;8437728;-0.056;1.048;-0.272;0.164;0.4305;-0.1435;-1;-1;-1
14784;14785264;6382560;8437728;-0.048;1.044;-0.26;0.1845;0.492;-0.287;-1;-1;-1
14796;14797440;6380000;8437728;-0.06;1.056;-0.272;0.1435;0.5535;-0.0615;-1;-1;-1
14807;14807104;6383584;8437728;-0.048;1.052;-0.28;0.123;0.492;-0.1845;-1;-1;-1
14819;14820168;6386144;8437728;-0.036;1.04;-0.272;0.123;0.4715;-0.1845;-1;-1;-1
14831;14832368;6380512;8437728;-0.06;1.044;-0.264;0.123;0.4715;-0.041;-1;-1;-1
14843;14844584;6384096;8437728;-0.052;1.044;-0.292;0.246;0.451;-0.164;-1;-1;-1
14854;14854232;6380000;8437728;-0.048;1.04;-0.28;0.205;0.4305;-0.1435;-1;-1;-1
14866;14866480;6384608;8437728;-0.06;1.044;-0.288;0.1845;0.5125;-0.246;-1;-1;-1
14878;14879536;6382560;8437728;-0.068;1.04;-0.3;0.205;0.4715;-0.1435;-1;-1;-1
14891;14891720;6382560;8437728;-0.052;1.044;-0.264;0.1845;0.492;-0.164;-1;-1;-1
14903;14903920;6382048;8437216;-0.06;1.04;-0.272;0.2255;0.4305;-0.1025;-1;-1;-1
14915;14916128;6384096;8437216;-0.048;1.048;-0.276;0.1845;0.5125;-0.123;-1;-1;-1
14927;14928328;6386144;8437216;-0.048;1.052;-0.28;0.1435;0.5125;-0.1025;-1;-1;-1
14938;14938792;6383072;8437216;-0.056;1.044;-0.268;0.164;0.3895;-0.0205;-1;-1;-1
14950;14951008;6381536;8437216;-0.056;1.052;-0.288;0.246;0.492;-0.164;-1;-1;-1
14962;14963248;6384608;8437216;-0.06;1.044;-0.28;0.205;0.5125;-0.1025;-1;-1;-1
14974;14975432;6379488;8437216;-0.04;1.04;-0.26;0.164;0.533;-0.123;-1;-1;-1
14985;14985872;6378464;8437216;-0.064;1.044;-0.268;0.2255;0.4305;-0.0205;-1;-1;-1
14997;14998040;6381024;8437216;-0.056;1.064;-0.28;0.205;0.492;0.0205;-1;-1;-1
15009;15010280;6384608;8437216;-0.056;1.052;-0.276;0.246;0.5125;-0.041;-1;-1;-1
15020;15020696;6383072;8437216;-0.052;1.044;-0.276;0.1845;0.4715;-0.123;-1;-1;-1
15032;15032968;6385120;8437216;-0.044;1.044;-0.28;0.1435;0.5535;-0.1025;-1;-1;-1
15044;15045208;6386656;8437216;-0.06;1.044;-0.272;0.164;0.41;-0.1845;-1;-1;-1
15056;15057384;6380512;8437216;-0.048;1.06;-0.28;0.205;0.4305;-0.123;-1;-1;-1
15067;15067856;6386144;8437216;-0.044;1.056;-0.272;0.205;0.4715;-0.123;-1;-1;-1
15079;15080104;6385120;8437216;-0.06;1.068;-0.292;0.1845;0.492;-0.1435;-1;-1;-1
15091;15092312;6380000;8437216;-0.048;1.036;-0.248;0.164;0.5125;-0.082;-1;-1;-1
15104;15105384;6387680;8436192;-0.044;1.04;-0.26;0.2255;0.4715;-0.1845;-1;-1;-1
15116;15116704;6384608;8436192;-0.052;1.048;-0.284;0.1435;0.4715;-0.123;-1;-1;-1
15128;15128952;6385632;8436192;-0.068;1.048;-0.28;0.205;0.3895;-0.123;-1;-1;-1
15140;15141144;6377952;8436192;-0.04;1.04;-0.276;0.1435;0.5125;-0.123;-1;-1;-1
15151;15151568;6386656;8436192;-0.052;1.048;-0.276;0.1025;0.533;-0.123;-1;-1;-1
15163;15163760;6386144;8436192;-0.056;1.06;-0.304;0.164;0.492;-0.1435;-1;-1;-1
15175;15176000;6385120;8436192;-0.048;1.036;-0.272;0.246;0.5125;-0.123;-1;-1;-1
15187;15188224;6383072;8436192;-0.044;1.016;-0.272;0.1435;0.5125;-0.082;-1;-1;-1
15198;15198672;6379488;8436192;-0.048;1.052;-0.28;0.164;0.4715;-0.123;-1;-1;-1
15210;15210904;6384608;8435680;-0.064;1.044;-0.284;0.205;0.451;-0.164;-1;-1;-1
15222;15223136;6383072;8435680;-0.048;1.044;-0.276;0.123;0.451;-0.082;-1;-1;-1
15233;15233616;6383584;8435680;-0.052;1.044;-0.288;0.1845;0.533;-0.1435;-1;-1;-1
15245;15245824;6389216;8435680;-0.052;1.056;-0.268;0.1025;0.4715;-0.1025;-1;-1;-1
15257;15258040;6380000;8435680;-0.048;1.052;-0.264;0.287;0.492;-0.1025;-1;-1;-1
15269;15270248;6386144;8435680;-0.044;1.032;-0.276;0.1435;0.5125;-0.082;-1;-1;-1
15280;15280728;6382560;8435680;-0.048;1.048;-0.288;0.164;0.492;-0.1435;-1;-1;-1
15292;15292944;6380512;8435680;-0.064;1.056;-0.276;0.2255;0.4715;-0.0615;-1;-1;-1
15304;15305104;6384608;8435680;-0.052;1.044;-0.264;0.1845;0.574;-0.082;-1;-1;-1
15316;15317352;6385632;8435168;-0.044;1.032;-0.272;0.2255;0.4715;-0.082;-1;-1;-1
15327;15327840;6385120;8435168;-0.052;1.048;-0.28;0.205;0.4715;-0.123;-1;-1;-1
15339;15340024;6380512;8435168;-0.052;1.048;-0.272;0.1845;0.492;0.0615;-1;-1;-1
15351;15352256;6386656;8435168;-0.04;1.04;-0.264;0.1845;0.3895;-0.0615;-1;-1;-1
15362;15362680;6384096;8435168;-0.048;1.04;-0.264;0.1435;0.5125;-0.1025;-1;-1;-1
15374;15374880;6381536;8435168;-0.044;1.064;-0.264;0.246;0.41;-0.164;-1;-1;-1
15386;15387112;6383072;8435168;-0.048;1.044;-0.276;0.246;0.451;-0.0615;-1;-1;-1
15398;15399320;6385632;8435168;-0.064;1.048;-0.28;0.205;0.451;-0.123;-1;-1;-1
15409;15410656;6388704;8434656;-0.04;1.044;-0.26;0.1845;0.4715;-0.1435;-1;-1;-1
15421;15421968;6380000;8434656;-0.052;1.052;-0.296;0.1845;0.492;0;-1;-1;-1
15433;15434192;6383584;8434656;-0.04;1.052;-0.268;0.082;0.5535;-0.0615;-1;-1;-1
15446;15446384;6382560;8434656;-0.048;1.048;-0.288;0.2255;0.5125;-0.123;-1;-1;-1
15458;15458640;6380512;8434656;-0.04;1.04;-0.26;0.1845;0.492;-0.1435;-1;-1;-1
15470;15470856;6383584;8434656;-0.052;1.028;-0.268;0.2255;0.451;-0.123;-1;-1;-1
15482;15483064;6380512;8434656;-0.012;1.036;-0.264;0.1845;0.533;0;-1;-1;-1
15493;15493512;6380000;8434656;-0.084;1.04;-0.284;0.205;0.5125;-0.082;-1;-1;-1
15505;15505760;6385120;8434656;-0.032;1.048;-0.272;0.1435;0.492;-0.082;-1;-1;-1
15517;15517976;6385120;8434656;-0.076;1.052;-0.292;0.2665;0.4715;-0.1845;-1;-1;-1
15529;15530184;6385632;8434656;-0.044;1.036;-0.284;0.1845;0.5125;-0.0615;-1;-1;-1
15540;15540656;6383072;8434656;-0.072;1.052;-0.26;0.164;0.492;-0.0615;-1;-1;-1
15552;15552896;6385632;8434656;-0.048;1.048;-0.272;0.082;0.492;-0.164;-1;-1;-1
15564;15565136;6387680;8434656;-0.044;1.04;-0.284;0.2255;0.492;-0.0615;-1;-1;-1
15575;15575584;6386656;8434656;-0.04;1.036;-0.276;0.246;0.451;-0.1435;-1;-1;-1
15587;15587744;6383584;8434656;-0.064;1.06;-0.292;0.1435;0.533;-0.1845;-1;-1;-1
15599;15599968;6386656;8434656;-0.068;1.052;-0.292;0.1435;0.451;-0.0205;-1;-1;-1
15611;15612208;6380512;8434656;-0.056;1.06;-0.288;0.164;0.4305;-0.1025;-1;-1;-1
15622;15622640;6380000;8434144;-0.056;1.044;-0.288;0.1845;0.4305;-0.123;-1;-1;-1
15634;15634848;6384608;8434144;-0.048;1.036;-0.284;0.1435;0.5125;-0.123;-1;-1;-1
15646;15647080;6386144;8434144;-0.076;1.056;-0.244;0.2665;0.4305;-0.1025;-1;-1;-1
15659;15659296;6380512;8434144;-0.032;1.048;-0.284;0.1845;0.492;-0.0205;-1;-1;-1
15671;15671464;6387168;8434144;-0.06;1.048;-0.28;0.1845;0.5125;-0.041;-1;-1;-1
15683;15683704;6384096;8434144;-0.056;1.036;-0.292;0.246;0.4305;-0.1435;-1;-1;-1
15695;15695936;6382048;8434144;-0.052;1.052;-0.276;0.1845;0.5125;-0.1025;-1;-1;-1
15706;15706424;6386656;8434144;-0.048;1.052;-0.28;0.1025;0.5535;-0.1435;-1;-1;-1
15718;15718624;6384608;8434144;-0.044;1.044;-0.272;0.164;0.4715;-0.1025;-1;-1;-1
15730;15730824;6387168;8434144;-0.048;1.036;-0.28;0.205;0.5125;-0.2255;-1;-1;-1
15742;15743056;6384608;8434144;-0.056;1.052;-0.284;0.123;0.3895;-0.123;-1;-1;-1
15753;15753504;6383584;8434144;-0.064;1.04;-0.272;0.164;0.5125;-0.041;-1;-1;-1
15765;15765688;6380000;8434144;-0.04;1.048;-0.272;0.2255;0.451;-0.0615;-1;-1;-1
15777;15777888;6382560;8434144;-0.068;1.06;-0.26;0.1435;0.533;-0.123;-1;-1;-1
15788;15788352;6383072;8434144;-0.036;1.04;-0.288;0.1845;0.4715;-0.123;-1;-1;-1
15800;15800544;6384096;8434144;-0.06;1.04;-0.292;0.205;0.4305;-0.164;-1;-1;-1
15812;15812776;6383072;8434144;-0.032;1.048;-0.284;0.2255;0.4715;-0.1435;-1;-1;-1
15824;15824968;6384096;8433632;-0.068;1.052;-0.308;0.1845;0.451;-0.1025;-1;-1;-1
15835;15835416;6384096;8433632;-0.04;1.04;-0.268;0.246;0.4305;-0.1845;-1;-1;-1
15847;15847608;6385632;8433632;-0.072;1.04;-0.276;0.123;0.5125;-0.082;-1;-1;-1
15859;15859824;6384096;8433632;-0.052;1.048;-0.276;0.1435;0.451;-0.1025;-1;-1;-1
15872;15872072;6389216;8433632;-0.064;1.044;-0.28;0.205;0.3895;-0.1845;-1;-1;-1
15884;15885120;6381536;8433632;-0.068;1.068;-0.308;0.205;0.451;-0.1435;-1;-1;-1
15896;15897304;6385632;8433632;-0.064;1.044;-0.272;0.2255;0.5125;-0.0615;-1;-1;-1
15908;15909496;6385120;8433632;-0.052;1.056;-0.304;0.2255;0.5125;0;-1;-1;-1
15919;15920000;6381536;8433120;-0.056;1.056;-0.296;0.164;0.4715;-0.164;-1;-1;-1
15931;15932200;6390240;8433120;-0.06;1.044;-0.284;0.1435;0.492;-0.041;-1;-1;-1
15943;15944392;6387168;8433120;-0.056;1.048;-0.276;0.123;0.6765;0;-1;-1;-1
15955;15956608;6382560;8433120;-0.052;1.044;-0.276;0.287;0.369;-0.164;-1;-1;-1
15966;15967072;6384096;8433120;-0.052;1.048;-0.292;0.1845;0.492;-0.205;-1;-1;-1
15978;15979296;6381536;8433120;-0.052;1.032;-0.288;0.2255;0.451;-0.123;-1;-1;-1
15990;15991464;6385632;8433120;-0.052;1.036;-0.28;0.1845;0.41;-0.1025;-1;-1;-1
16001;16001072;6384608;8433120;-0.04;1.04;-0.28;0.1435;0.533;-0.082;-1;-1;-1
16013;16014168;6385120;8433120;-0.052;1.056;-0.26;0.1845;0.5125;-0.2255;-1;-1;-1
16025;16026400;6387680;8433120;-0.06;1.048;-0.292;0.1845;0.492;-0.1435;-1;-1;-1
16037;16038584;6386656;8433120;-0.06;1.048;-0.244;0.1845;0.4305;-0.082;-1;-1;-1
16048;16048216;6380000;8433120;-0.048;1.048;-0.276;0.246;0.451;-0.123;-1;-1;-1
16060;16061288;6384608;8433120;-0.056;1.036;-0.272;0.164;0.4305;-0.041;-1;-1;-1
16072;16073504;6383584;8433120;-0.048;1.048;-0.272;0.123;0.4715;-0.082;-1;-1;-1
16084;16085704;6383072;8433120;-0.056;1.044;-0.276;0.1845;0.4715;-0.123;-1;-1;-1
16095;16095288;6382560;8433120;-0.04;1.048;-0.292;0.1845;0.4715;-0.082;-1;-1;-1
16107;16108312;6382048;8433120;-0.06;1.056;-0.272;0.1845;0.533;-0.041;-1;-1;-1
16119;16120544;6380512;8433120;-0.06;1.048;-0.272;0.1845;0.287;-0.0205;-1;-1;-1
16130;16130136;6386144;8432608;-0.048;1.048;-0.292;0.164;0.5535;-0.041;-1;-1;-1
16142;16143184;6384608;8432608;-0.052;1.056;-0.276;0.2255;0.4715;-0.082;-1;-1;-1
16154;16155384;6380512;8432608;-0.06;1.056;-0.276;0.164;0.451;-0.123;-1;-1;-1
16166;16167592;6384096;8432608;-0.04;1.048;-0.264;0.246;0.492;-0.082;-1;-1;-1
16177;16177216;6383072;8432608;-0.04;1.04;-0.272;0.164;0.4305;-0.082;-1;-1;-1
16189;16189488;6386144;8432608;-0.06;1.04;-0.28;0.1845;0.4715;-0.123;-1;-1;-1
16201;16202544;6384608;8432608;-0.064;1.044;-0.316;0.1845;0.4305;-0.123;-1;-1;-1
16214;16214784;6382560;8432608;-0.056;1.052;-0.272;0.205;0.492;-0.1435;-1;-1;-1
16226;16227000;6380512;8432608;-0.044;1.052;-0.264;0.2255;0.4715;-0.123;-1;-1;-1
16238;16239216;6384608;8432608;-0.056;1.036;-0.26;0.123;0.5125;-0.1025;-1;-1;-1
16250;16251424;6385632;8432608;-0.056;1.048;-0.292;0.205;0.5535;-0.1025;-1;-1;-1
16261;16261872;6386656;8432608;-0.052;1.056;-0.288;0.205;0.4715;-0.0615;-1;-1;-1
16273;16274088;6385120;8432608;-0.048;1.056;-0.28;0.1435;0.5125;-0.0615;-1;-1;-1
16285;16286288;6386144;8432608;-0.052;1.056;-0.268;0.205;0.3895;-0.164;-1;-1;-1
16297;16298472;6382560;8432608;-0.064;1.032;-0.272;0.2255;0.5125;-0.1845;-1;-1;-1
16308;16308912;6381536;8432608;-0.04;1.036;-0.272;0.246;0.5125;-0.041;-1;-1;-1
16320;16321160;6382048;8432608;-0.048;1.044;-0.276;0.2255;0.4305;-0.123;-1;-1;-1
16332;16333440;6388704;8432608;-0.052;1.044;-0.276;0.164;0.5125;-0.041;-1;-1;-1
16343;16343936;6384608;8432608;-0.056;1.048;-0.272;0.164;0.533;-0.164;-1;-1;-1
16355;16356128;6384096;8432608;-0.048;1.04;-0.284;0.1435;0.4715;-0.123;-1;-1;-1
16367;16368344;6380512;8432608;-0.056;1.056;-0.284;0.246;0.4715;-0.1435;-1;-1;-1
16379;16380560;6385120;8432608;-0.048;1.048;-0.264;0.3075;0.4715;-0.205;-1;-1;-1
16390;16391032;6385120;8432608;-0.052;1.04;-0.268;0.2255;0.4715;-0.205;-1;-1;-1
16402;16403240;6381536;8432608;-0.06;1.04;-0.288;0.082;0.533;-0.1025;-1;-1;-1
16414;16415424;6386656;8432608;-0.052;1.052;-0.292;0.1845;0.5535;-0.082;-1;-1;-1
16427;16428504;6385632;8432096;-0.064;1.06;-0.276;0.246;0.492;-0.1025;-1;-1;-1
16439;16439816;6381024;8432096;-0.044;1.044;-0.264;0.205;0.492;-0.1025;-1;-1;-1
16451;16451984;6383584;8432096;-0.044;1.04;-0.284;0.164;0.533;-0.082;-1;-1;-1
16463;16464216;6380000;8432096;-0.048;1.04;-0.272;0.205;0.41;-0.205;-1;-1;-1
16474;16474696;6386656;8432096;-0.06;1.044;-0.276;0.246;0.4715;-0.123;-1;-1;-1
16486;16486880;6384608;8432096;-0.06;1.056;-0.284;0.205;0.451;-0.123;-1;-1;-1
16498;16499088;6378464;8432096;-0.056;1.048;-0.268;0.1845;0.5125;-0.205;-1;-1;-1
16510;16511320;6377440;8432096;-0.036;1.036;-0.288;0.205;0.4305;-0.123;-1;-1;-1
16521;16521736;6385120;8432096;-0.052;1.044;-0.268;0.164;0.492;-0.041;-1;-1;-1
16533;16533928;6389728;8431072;-0.04;1.044;-0.268;0.123;0.4715;-0.041;-1;-1;-1
16545;16546176;6384096;8431072;-0.056;1.048;-0.288;0.1845;0.4715;-0.1845;-1;-1;-1
16556;16556624;6382560;8431072;-0.052;1.028;-0.26;0.1435;0.3075;-0.041;-1;-1;-1
16568;16568816;6385120;8431072;-0.048;1.048;-0.288;0.1025;0.4715;-0.205;-1;-1;-1
16580;16581040;6383584;8431072;-0.06;1.052;-0.256;0.164;0.5535;-0.205;-1;-1;-1
16592;16593240;6385120;8431072;-0.056;1.044;-0.284;0.123;0.4715;-0.1435;-1;-1;-1
16603;16603696;6384096;8431072;-0.04;1.048;-0.244;0.1845;0.533;-0.1435;-1;-1;-1
16615;16615856;6387680;8431072;-0.044;1.052;-0.268;0.123;0.5125;-0.041;-1;-1;-1
16627;16628104;6387680;8431072;-0.056;1.04;-0.292;0.1845;0.492;0;-1;-1;-1
16640;16640272;6386144;8431072;-0.048;1.048;-0.272;0.1845;0.4305;-0.1845;-1;-1;-1
16652;16652440;6386656;8431072;-0.044;1.048;-0.28;0.164;0.492;-0.1025;-1;-1;-1
16664;16664632;6385120;8431072;-0.052;1.036;-0.284;0.164;0.451;-0.123;-1;-1;-1
16676;16677696;6381536;8431072;-0.06;1.044;-0.28;0.205;0.4715;-0.082;-1;-1;-1
16687;16687280;6385120;8431072;-0.056;1.052;-0.284;0.1435;0.5125;-0.0615;-1;-1;-1
16699;16699480;6385632;8431072;-0.044;1.048;-0.284;0.164;0.492;-0.1025;-1;-1;-1
16711;16711728;6385120;8431072;-0.052;1.04;-0.252;0.1435;0.5535;-0.1025;-1;-1;-1
16723;16724752;6384608;8431072;-0.052;1.036;-0.28;0.1845;0.533;-0.205;-1;-1;-1
16734;16734328;6387168;8430560;-0.056;1.048;-0.264;0.205;0.369;-0.1845;-1;-1;-1
16746;16747392;6390240;8430560;-0.056;1.052;-0.264;0.2255;0.492;-0.1435;-1;-1;-1
16758;16759608;6384608;8430560;-0.06;1.052;-0.28;0.164;0.4715;-0.164;-1;-1;-1
16769;16769160;6382048;8430560;-0.056;1.052;-0.3;0.205;0.4715;-0.205;-1;-1;-1
16781;16782224;6387168;8430560;-0.06;1.052;-0.3;0.1845;0.492;-0.205;-1;-1;-1
16793;16794424;6386656;8430560;-0.06;1.036;-0.284;0.2255;0.5125;-0.082;-1;-1;-1
16805;16806632;6385632;8430560;-0.048;1.052;-0.292;0.246;0.451;-0.164;-1;-1;-1
16816;16816216;6384608;8430560;-0.056;1.06;-0.276;0.1025;0.5125;-0.0615;-1;-1;-1
16828;16829256;6380000;8430560;-0.056;1.048;-0.26;0.123;0.4305;-0.123;-1;-1;-1
16840;16841448;6383072;8430560;-0.064;1.036;-0.308;0.205;0.492;-0.205;-1;-1;-1
16852;16853656;6381536;8430560;-0.06;1.048;-0.272;0.1435;0.451;-0.1435;-1;-1;-1
16863;16864104;6383072;8430560;-0.04;1.04;-0.28;0.205;0.4305;-0.1435;-1;-1;-1
16875;16876328;6384096;8430560;-0.06;1.06;-0.3;0.164;0.4715;-0.0615;-1;-1;-1
16887;16888536;6388704;8430560;-0.056;1.04;-0.276;0.164;0.533;-0.1025;-1;-1;-1
16898;16898136;6385632;8430560;-0.056;1.04;-0.26;0.246;0.492;-0.1845;-1;-1;-1
16910;16911200;6381024;8430560;-0.052;1.044;-0.244;0.164;0.451;-0.123;-1;-1;-1
16922;16923384;6388704;8430560;-0.048;1.068;-0.308;0.1845;0.5125;-0.1025;-1;-1;-1
16934;16935568;6387168;8430560;-0.056;1.044;-0.264;0.287;0.451;-0.1845;-1;-1;-1
16945;16945200;6387168;8430048;-0.06;1.048;-0.284;0.205;0.492;-0.1025;-1;-1;-1
16957;16958272;6385120;8430048;-0.056;1.064;-0.28;0.205;0.4305;-0.0615;-1;-1;-1
16969;16970464;6386144;8430048;-0.056;1.048;-0.284;0.1845;0.4715;-0.1025;-1;-1;-1
16982;16982672;6381024;8430048;-0.06;1.052;-0.256;0.123;0.5125;-0.1435;-1;-1;-1
16994;16994872;6382560;8430048;-0.04;1.048;-0.292;0.1025;0.533;-0.164;-1;-1;-1
17006;17007064;6383584;8430048;-0.052;1.036;-0.284;0.1845;0.492;-0.1435;-1;-1;-1
17018;17019248;6389728;8430048;-0.048;1.04;-0.284;0.164;0.492;-0.123;-1;-1;-1
17029;17029696;6384096;8430048;-0.052;1.052;-0.276;0.205;0.451;-0.082;-1;-1;-1
17041;17041888;6387680;8429536;-0.052;1.04;-0.276;0.164;0.451;-0.1025;-1;-1;-1
17053;17054096;6387168;8429536;-0.056;1.04;-0.268;0.205;0.451;-0.082;-1;-1;-1
17065;17066336;6386144;8429536;-0.056;1.044;-0.276;0.2255;0.4305;-0.164;-1;-1;-1
17076;17076768;6386144;8429536;-0.052;1.04;-0.264;0.2255;0.492;-0.164;-1;-1;-1
17088;17088936;6385632;8429536;-0.06;1.044;-0.276;0.1845;0.5125;-0.1025;-1;-1;-1
17100;17101128;6389216;8429536;-0.048;1.04;-0.28;0.2255;0.4715;-0.205;-1;-1;-1
17111;17111560;6384096;8429536;-0.064;1.068;-0.28;0.205;0.451;-0.1435;-1;-1;-1
17123;17123792;6388704;8429536;-0.048;1.052;-0.276;0.164;0.4715;-0.0615;-1;-1;-1
17135;17135984;6383584;8429536;-0.052;1.04;-0.284;0.2665;0.533;-0.164;-1;-1;-1
17147;17148216;6380000;8429024;-0.052;1.036;-0.28;0.1435;0.533;-0.0205;-1;-1;-1
17158;17158688;6381024;8429024;-0.048;1.044;-0.268;0.164;0.5125;-0.1435;-1;-1;-1
17170;17170880;6387168;8429024;-0.06;1.044;-0.272;0.1025;0.5125;-0.164;-1;-1;-1
17182;17183096;6383072;8429024;-0.052;1.04;-0.276;0.2255;0.533;-0.164;-1;-1;-1
17195;17195304;6385120;8429024;-0.044;1.044;-0.272;0.205;0.492;-0.2665;-1;-1;-1
17207;17207480;6389216;8429024;-0.056;1.036;-0.26;0.164;0.533;-0.0205;-1;-1;-1
17219;17219672;6383584;8429024;-0.056;1.052;-0.256;0.1435;0.4715;-0.041;-1;-1;-1
17231;17232768;6385120;8429024;-0.056;1.02;-0.244;0.2255;0.533;-0.1025;-1;-1;-1
17242;17242376;6388192;8429536;-0.056;1.04;-0.292;0.1845;0.451;-0.0615;-1;-1;-1
17254;17254600;6388704;8429536;-0.052;1.056;-0.272;0.164;0.4305;-0.1025;-1;-1;-1
17266;17266784;6387680;8429536;-0.052;1.04;-0.276;0.1435;0.533;-0.123;-1;-1;-1
17278;17279848;6387168;8429536;-0.056;1.048;-0.26;0.1845;0.451;-0.123;-1;-1;-1
17289;17289416;6387680;8429536;-0.056;1.048;-0.272;0.205;0.5125;-0.0615;-1;-1;-1
17301;17301616;6385120;8429536;-0.064;1.048;-0.284;0.1845;0.5125;-0.1025;-1;-1;-1
17313;17314696;6385632;8429536;-0.06;1.06;-0.268;0.2255;0.492;-0.082;-1;-1;-1
17324;17324264;6388192;8429536;-0.044;1.044;-0.272;0.1845;0.4305;0.0205;-1;-1;-1
17336;17336504;6388192;8429536;-0.048;1.048;-0.276;0.164;0.533;-0.1435;-1;-1;-1
17348;17348736;6388192;8429024;-0.056;1.04;-0.288;0.1845;0.451;-0.123;-1;-1;-1
17360;17360984;6388704;8429024;-0.06;1.044;-0.276;0.1435;0.369;-0.123;-1;-1;-1
17371;17371464;6387168;8429024;-0.064;1.056;-0.264;0.1435;0.533;-0.1435;-1;-1;-1
17383;17383624;6384096;8429024;-0.052;1.044;-0.272;0.205;0.4715;-0.0615;-1;-1;-1
17395;17395816;6387168;8429024;-0.056;1.048;-0.284;0.1845;0.4715;-0.123;-1;-1;-1
17408;17408912;6386656;8429024;-0.056;1.052;-0.284;0.2255;0.451;-0.123;-1;-1;-1
17420;17421064;6382048;8429024;-0.056;1.06;-0.28;0.205;0.451;-0.1435;-1;-1;-1
17432;17433248;6387680;8429024;-0.056;1.056;-0.292;0.1845;0.451;-0.082;-1;-1;-1
17444;17446384;6387680;8428512;-0.056;1.048;-0.276;0.164;0.451;-0.123;-1;-1;-1
17455;17455984;6387680;8428512;-0.06;1.044;-0.276;0.1435;0.533;-0.1025;-1;-1;-1
17467;17468184;6384096;8428512;-0.052;1.048;-0.284;0.1845;0.492;-0.1025;-1;-1;-1
17479;17480384;6385120;8428512;-0.044;1.036;-0.276;0.1845;0.5125;-0.0615;-1;-1;-1
17491;17492608;6388192;8428512;-0.06;1.04;-0.276;0.164;0.492;-0.082;-1;-1;-1
17502;17503064;6385632;8428512;-0.06;1.06;-0.252;0.246;0.451;-0.1845;-1;-1;-1
17514;17515256;6387680;8428512;-0.052;1.04;-0.268;0.0615;0.492;-0.1435;-1;-1;-1
17526;17527448;6382560;8428512;-0.052;1.044;-0.288;0.205;0.533;-0.1025;-1;-1;-1
17537;17537896;6383584;8428512;-0.048;1.04;-0.28;0.1845;0.451;-0.0615;-1;-1;-1
17549;17550096;6387680;8428000;-0.04;1.028;-0.288;0.205;0.5125;-0.164;-1;-1;-1
17561;17562264;6387680;8428000;-0.056;1.052;-0.256;0.2665;0.492;-0.041;-1;-1;-1
17573;17574520;6388192;8428000;-0.044;1.048;-0.268;0.1845;0.4305;-0.1025;-1;-1;-1
17584;17585000;6385632;8428000;-0.064;1.04;-0.284;0.164;0.574;-0.164;-1;-1;-1
17596;17597200;6383072;8428000;-0.064;1.06;-0.264;0.164;0.4715;-0.041;-1;-1;-1
17608;17609360;6388192;8428000;-0.056;1.044;-0.272;0.205;0.533;-0.082;-1;-1;-1
17620;17621592;6387680;8428000;-0.06;1.04;-0.272;0.1025;0.451;-0.082;-1;-1;-1
17631;17632056;6387680;8428000;-0.044;1.044;-0.268;0.2255;0.492;-0.1025;-1;-1;-1
17643;17644208;6385120;8428000;-0.072;1.052;-0.268;0.123;0.4715;-0.082;-1;-1;-1
17655;17656424;6389216;8428000;-0.056;1.044;-0.304;0.1845;0.533;-0.1435;-1;-1;-1
17666;17666880;6384096;8428000;-0.056;1.044;-0.284;0.1845;0.492;-0.164;-1;-1;-1
17678;17679072;6381024;8428000;-0.048;1.048;-0.28;0.1845;0.4715;-0.0615;-1;-1;-1
17690;17691288;6387680;8428000;-0.048;1.044;-0.26;0.123;0.4715;-0.1025;-1;-1;-1
17702;17703544;6385632;8428000;-0.048;1.028;-0.3;0.246;0.492;-0.205;-1;-1;-1
17713;17713976;6386144;8428000;-0.056;1.032;-0.268;0.246;0.451;-0.1025;-1;-1;-1
17725;17726200;6382048;8428000;-0.052;1.06;-0.312;0.164;0.451;0;-1;-1;-1
17737;17738376;6391776;8428000;-0.048;1.048;-0.288;0.205;0.4305;-0.123;-1;-1;-1
17750;17751448;6387680;8426976;-0.052;1.052;-0.272;0.205;0.5125;-0.1025;-1;-1;-1
17762;17762784;6384608;8426976;-0.036;1.052;-0.292;0.205;0.492;-0.205;-1;-1;-1
17774;17775000;6386656;8426976;-0.06;1.052;-0.28;0.246;0.492;-0.123;-1;-1;-1
17786;17787176;6385120;8426976;-0.06;1.048;-0.292;0.164;0.533;-0.123;-1;-1;-1
17797;17797640;6382048;8426976;-0.052;1.048;-0.292;0.1845;0.4715;-0.0205;-1;-1;-1
17809;17809848;6386656;8426976;-0.052;1.044;-0.276;0.205;0.4715;-0.041;-1;-1;-1
17821;17822088;6380000;8426976;-0.068;1.052;-0.264;0.123;0.533;-0.1025;-1;-1;-1
17833;17834328;6386656;8426976;-0.068;1.044;-0.28;0.1435;0.492;-0.1845;-1;-1;-1
17844;17844744;6390240;8426976;-0.052;1.036;-0.272;0.1845;0.5535;-0.1845;-1;-1;-1
17856;17856936;6384608;8426976;-0.06;1.04;-0.284;0.1435;0.451;-0.1025;-1;-1;-1
17868;17869184;6389216;8426976;-0.048;1.048;-0.268;0.1845;0.451;-0.1435;-1;-1;-1
17879;17879656;6386656;8426976;-0.048;1.048;-0.28;0.1845;0.492;0;-1;-1;-1
17891;17891880;6387168;8426976;-0.048;1.06;-0.28;0.164;0.5125;-0.1435;-1;-1;-1
17903;17904096;6386144;8426976;-0.056;1.064;-0.28;0.205;0.451;-0.1025;-1;-1;-1
17915;17916296;6388704;8426976;-0.044;1.04;-0.272;0.1845;0.4715;-0.123;-1;-1;-1
17926;17926776;6389728;8426976;-0.044;1.044;-0.268;0.164;0.492;-0.164;-1;-1;-1
17938;17938976;6387168;8426976;-0.048;1.044;-0.288;0.1845;0.4715;-0.123;-1;-1;-1
17950;17951176;6385120;8426976;-0.056;1.04;-0.288;0.1845;0.5535;-0.205;-1;-1;-1
17963;17963368;6382560;8426464;-0.052;1.056;-0.26;0.164;0.5535;-0.082;-1;-1;-1
17975;17975600;6383584;8426464;-0.06;1.048;-0.284;0.1845;0.4715;-0.164;-1;-1;-1
17987;17987848;6388192;8426464;-0.052;1.044;-0.264;0.205;0.41;-0.164;-1;-1;-1
17999;18000048;6382560;8426464;-0.056;1.048;-0.316;0.2255;0.492;-0.1025;-1;-1;-1
18010;18010512;6381536;8426464;-0.06;1.052;-0.272;0.164;0.533;-0.2665;-1;-1;-1
18022;18022728;6387168;8426464;-0.056;1.044;-0.272;0.164;0.4305;-0.041;-1;-1;-1
18034;18034944;6386144;8426464;-0.044;1.048;-0.284;0.205;0.5125;-0.123;-1;-1;-1
18046;18047128;6380512;8426464;-0.056;1.036;-0.28;0.1435;0.492;-0.123;-1;-1;-1
18057;18057592;6380512;8426464;-0.052;1.048;-0.292;0.2255;0.4715;-0.123;-1;-1;-1
18069;18069832;6386144;8426464;-0.06;1.048;-0.28;0.1025;0.492;-0.1025;-1;-1;-1
18081;18082032;6388192;8426464;-0.072;1.04;-0.28;0.2255;0.4715;-0.1435;-1;-1;-1
18092;18092504;6388192;8426464;-0.052;1.052;-0.264;0.164;0.451;-0.123;-1;-1;-1
18104;18104696;6386656;8426464;-0.056;1.044;-0.276;0.205;0.492;-0.1435;-1;-1;-1
18116;18116936;6388192;8426464;-0.044;1.044;-0.288;0.1845;0.4305;-0.164;-1;-1;-1
18128;18129176;6385632;8426464;-0.064;1.048;-0.276;0.164;0.5535;-0.0615;-1;-1;-1
18139;18139616;6385120;8426464;-0.048;1.056;-0.288;0.123;0.574;-0.1435;-1;-1;-1
18151;18151824;6388192;8426464;-0.06;1.048;-0.276;0.2255;0.4305;-0.123;-1;-1;-1
18163;18164064;6386144;8425952;-0.06;1.056;-0.276;0.1845;0.451;-0.0615;-1;-1;-1
18176;18176288;6388704;8425952;-0.044;1.048;-0.284;0.123;0.492;-0.1435;-1;-1;-1
18188;18188488;6381536;8425952;-0.056;1.06;-0.28;0.164;0.4715;-0.1845;-1;-1;-1
18200;18200680;6388192;8425952;-0.044;1.036;-0.28;0.205;0.533;-0.1435;-1;-1;-1
18212;18213752;6388704;8425952;-0.064;1.048;-0.272;0.1435;0.533;-0.1025;-1;-1;-1
18223;18223360;6387680;8425952;-0.052;1.04;-0.284;0.205;0.4715;-0.123;-1;-1;-1
18235;18235568;6389216;8425952;-0.044;1.032;-0.26;0.2255;0.5125;-0.123;-1;-1;-1
18247;18247752;6387680;8425952;-0.056;1.044;-0.272;0.164;0.4715;-0.123;-1;-1;-1
18259;18261712;6385120;8425440;-0.064;1.056;-0.284;0.1845;0.492;-0.1435;-1;-1;-1
18274;18274816;6386656;8425440;-0.06;1.048;-0.268;0.2255;0.574;-0.164;-1;-1;-1
18286;18287040;6383072;8425440;-0.048;1.048;-0.276;0.1025;0.615;-0.164;-1;-1;-1
18298;18299248;6387168;8425440;-0.056;1.044;-0.276;0.246;0.492;-0.164;-1;-1;-1
18309;18309696;6384608;8425440;-0.048;1.044;-0.28;0.164;0.4715;-0.0615;-1;-1;-1
18321;18321920;6383584;8425440;-0.052;1.048;-0.28;0.1845;0.41;-0.1435;-1;-1;-1
18333;18334080;6386656;8425440;-0.056;1.044;-0.228;0.205;0.4715;-0.1845;-1;-1;-1
18345;18346304;6386656;8425440;-0.052;1.048;-0.292;0.246;0.451;-0.0205;-1;-1;-1
18356;18356744;6385120;8425440;-0.056;1.056;-0.272;0.246;0.492;-0.0205;-1;-1;-1
18368;18368936;6383072;8424928;-0.036;1.048;-0.272;0.246;0.4305;-0.1435;-1;-1;-1
18380;18381120;6381536;8424928;-0.056;1.06;-0.288;0.2665;0.451;-0.123;-1;-1;-1
18391;18391552;6384096;8424928;-0.052;1.036;-0.284;0.164;0.451;-0.1025;-1;-1;-1
18403;18403744;6389216;8424928;-0.06;1.048;-0.3;0.1845;0.451;-0.1025;-1;-1;-1
18415;18415976;6387680;8424928;-0.052;1.044;-0.276;0.1845;0.41;-0.205;-1;-1;-1
18427;18428192;6387680;8424928;-0.06;1.048;-0.324;0.1435;0.615;0;-1;-1;-1
18438;18438616;6389216;8424928;-0.056;1.04;-0.268;0.1845;0.451;-0.164;-1;-1;-1
18450;18450848;6385120;8424928;-0.052;1.048;-0.256;0.1845;0.4715;-0.123;-1;-1;-1
18462;18463032;6387680;8424928;-0.04;1.044;-0.276;0.123;0.492;-0.123;-1;-1;-1
18475;18475296;6387680;8424416;-0.048;1.04;-0.272;0.1435;0.451;-0.1845;-1;-1;-1
18487;18487504;6391776;8424416;-0.056;1.044;-0.28;0.164;0.451;-0.1025;-1;-1;-1
18499;18499688;6388192;8424416;-0.08;1.048;-0.292;0.123;0.533;-0.0615;-1;-1;-1
18511;18511928;6386144;8424416;-0.056;1.04;-0.276;0.1025;0.574;-0.041;-1;-1;-1
18522;18522312;6386144;8424416;-0.06;1.044;-0.276;0.1845;0.4715;-0.164;-1;-1;-1
18534;18534520;6383072;8424416;-0.036;1.056;-0.26;0.164;0.451;-0.123;-1;-1;-1
18546;18546776;6388192;8424416;-0.052;1.04;-0.292;0.123;0.533;-0.123;-1;-1;-1
18558;18559816;6390752;8424416;-0.04;1.048;-0.26;0.1025;0.4715;-0.041;-1;-1;-1
18569;18569432;6388192;8423904;-0.052;1.052;-0.28;0.123;0.492;-0.123;-1;-1;-1
18581;18581640;6387168;8423904;-0.048;1.04;-0.276;0.164;0.451;-0.123;-1;-1;-1
18593;18593848;6383072;8423904;-0.056;1.044;-0.272;0.1435;0.533;-0.1435;-1;-1;-1
18604;18604320;6384096;8423904;-0.056;1.052;-0.284;0.1845;0.492;-0.1025;-1;-1;-1
18616;18616512;6380512;8423904;-0.056;1.036;-0.284;0.205;0.3895;-0.0615;-1;-1;-1
18628;18628704;6386144;8423904;-0.052;1.048;-0.284;0.2255;0.4715;-0.1435;-1;-1;-1
18640;18641744;6387680;8423904;-0.052;1.048;-0.272;0.164;0.5125;-0.041;-1;-1;-1
18651;18651312;6386144;8423904;-0.06;1.052;-0.276;0.164;0.4715;-0.1025;-1;-1;-1
18663;18663544;6388192;8423904;-0.036;1.036;-0.268;0.164;0.492;-0.164;-1;-1;-1
18675;18675768;6386144;8423392;-0.028;1.02;-0.288;0.2255;0.4715;-0.1025;-1;-1;-1
18688;18688800;6388704;8423392;-0.044;1.044;-0.28;0.1845;0.492;-0.1025;-1;-1;-1
18700;18701024;6389728;8423392;-0.06;1.056;-0.28;0.123;0.533;-0.0205;-1;-1;-1
18712;18713232;6383072;8423392;-0.052;1.044;-0.3;0.164;0.492;-0.1025;-1;-1;-1
18724;18725360;6390240;8423392;-0.06;1.052;-0.264;0.1435;0.5535;-0.205;-1;-1;-1
18735;18735816;6390752;8423392;-0.056;1.036;-0.304;0.164;0.533;-0.1845;-1;-1;-1
18747;18748056;6387168;8423392;-0.052;1.028;-0.256;0.1845;0.4715;-0.082;-1;-1;-1
18759;18760280;6382048;8423392;-0.06;1.04;-0.28;0.1435;0.5125;-0.123;-1;-1;-1
18771;18772504;6383072;8422880;-0.052;1.048;-0.276;0.164;0.4715;-0.123;-1;-1;-1
18782;18782936;6383072;8422880;-0.06;1.036;-0.268;0.1025;0.492;-0.2255;-1;-1;-1
18794;18795096;6386144;8422880;-0.052;1.056;-0.28;0.123;0.5125;-0.082;-1;-1;-1
18806;18807288;6387168;8422880;-0.056;1.044;-0.288;0.1435;0.451;-0.0615;-1;-1;-1
18817;18817760;6388704;8422880;-0.064;1.052;-0.288;0.123;0.4715;-0.082;-1;-1;-1
18829;18829968;6386656;8422880;-0.056;1.056;-0.284;0.246;0.41;-0.123;-1;-1;-1
18841;18842184;6386656;8422880;-0.044;1.048;-0.264;0.205;0.4305;-0.287;-1;-1;-1
18853;18854384;6388192;8422880;-0.06;1.048;-0.252;0.205;0.5125;-0.0205;-1;-1;-1
18864;18864832;6389728;8422880;-0.076;1.064;-0.26;0.2255;0.492;-0.041;-1;-1;-1
18876;18877072;6380512;8422880;-0.056;1.044;-0.276;0.2255;0.492;-0.1845;-1;-1;-1
18888;18889320;6390752;8422880;-0.052;1.04;-0.288;0.1025;0.5125;-0.0615;-1;-1;-1
18900;18901520;6389728;8422880;-0.06;1.052;-0.272;0.1435;0.4715;-0.1025;-1;-1;-1
18911;18912008;6385632;8422880;-0.064;1.052;-0.272;0.164;0.5535;-0.1435;-1;-1;-1
18923;18924176;6388704;8422880;-0.056;1.052;-0.288;0.205;0.451;-0.1025;-1;-1;-1
18935;18936376;6390240;8422880;-0.048;1.048;-0.256;0.123;0.5125;-0.164;-1;-1;-1
18946;18946792;6389216;8422880;-0.056;1.056;-0.276;0.1435;0.533;-0.0615;-1;-1;-1
18958;18958984;6384096;8422880;-0.052;1.044;-0.268;0.2255;0.4715;-0.1435;-1;-1;-1
18970;18972056;6385120;8421856;-0.052;1.044;-0.288;0.164;0.492;-0.164;-1;-1;-1
18982;18983416;6390752;8421856;-0.072;1.056;-0.264;0.205;0.533;-0.287;-1;-1;-1
18993;18993880;6388704;8421856;-0.044;1.04;-0.268;0.246;0.451;-0.041;-1;-1;-1
19005;19006048;6390240;8421856;-0.06;1.056;-0.288;0.2255;0.451;-0.0615;-1;-1;-1
19017;19018232;6386144;8421856;-0.032;1.036;-0.28;0.123;0.533;-0.1025;-1;-1;-1
19030;19030440;6386656;8421856;-0.044;1.044;-0.272;0.287;0.451;-0.0205;-1;-1;-1
19042;19042624;6386144;8421856;-0.056;1.048;-0.316;0.1845;0.328;0;-1;-1;-1
19054;19054832;6386656;8421856;-0.048;1.044;-0.276;0.164;0.4715;-0.041;-1;-1;-1
19066;19067032;6388704;8421856;-0.044;1.036;-0.288;0.164;0.4715;-0.205;-1;-1;-1
19077;19077504;6385632;8421856;-0.064;1.04;-0.276;0.1845;0.5125;-0.041;-1;-1;-1
19089;19089696;6389216;8421856;-0.056;1.048;-0.276;0.1435;0.492;-0.123;-1;-1;-1
19101;19101880;6388192;8421856;-0.052;1.056;-0.264;0.246;0.4715;0;-1;-1;-1
19113;19114120;6391264;8421856;-0.04;1.024;-0.268;0.246;0.451;-0.1435;-1;-1;-1
19124;19124584;6385632;8421856;-0.052;1.04;-0.272;0.164;0.451;-0.1025;-1;-1;-1
19136;19136792;6387168;8421856;-0.068;1.056;-0.272;0.1845;0.4715;-0.123;-1;-1;-1
19148;19148976;6384096;8421856;-0.08;1.072;-0.296;0.164;0.4715;0.0615;-1;-1;-1
19159;19159392;6382560;8421856;-0.044;1.044;-0.284;0.2255;0.4715;-0.164;-1;-1;-1
19171;19171624;6389216;8421856;-0.068;1.04;-0.3;0.2255;0.4305;0.041;-1;-1;-1
19183;19183872;6383072;8421344;-0.056;1.032;-0.28;0.1435;0.492;-0.0615;-1;-1;-1
19195;19196056;6390240;8421344;-0.048;1.044;-0.268;0.1435;0.533;-0.082;-1;-1;-1
19206;19206536;6386656;8421344;-0.056;1.044;-0.292;0.205;0.451;-0.123;-1;-1;-1
19218;19218768;6387680;8421344;-0.064;1.044;-0.28;0.205;0.533;-0.0205;-1;-1;-1
19230;19230992;6388704;8421344;-0.06;1.052;-0.28;0.164;0.4305;-0.1025;-1;-1;-1
19243;19243200;6387680;8421344;-0.036;1.052;-0.284;0.164;0.492;-0.164;-1;-1;-1
19255;19255392;6388704;8421344;-0.04;1.044;-0.276;0.164;0.492;-0.041;-1;-1;-1
19267;19268432;6389216;8421344;-0.056;1.044;-0.248;0.1845;0.6355;-0.1435;-1;-1;-1
19279;19280648;6383584;8420832;-0.052;1.04;-0.292;0.1845;0.4715;-0.164;-1;-1;-1
19290;19290248;6386144;8420832;-0.044;1.04;-0.284;0.164;0.5125;-0.246;-1;-1;-1
19302;19302456;6382560;8420832;-0.052;1.04;-0.268;0.2255;0.533;-0.123;-1;-1;-1
19314;19315448;6388192;8420832;-0.06;1.048;-0.268;0.164;0.5125;-0.205;-1;-1;-1
19326;19327632;6386144;8420832;-0.048;1.036;-0.28;0.1845;0.4715;-0.0615;-1;-1;-1
19337;19337272;6385632;8420832;-0.048;1.024;-0.268;0.3075;0.3895;-0.123;-1;-1;-1
19349;19350368;6385632;8420832;-0.048;1.048;-0.3;0.205;0.5125;-0.2665;-1;-1;-1
19361;19362552;6389728;8420832;-0.052;1.04;-0.284;0.164;0.5125;-0.164;-1;-1;-1
19372;19372176;6381536;8420832;-0.048;1.036;-0.276;0.205;0.4715;-0.164;-1;-1;-1
19384;19384392;6390240;8420320;-0.052;1.044;-0.292;0.205;0.451;-0.1435;-1;-1;-1
19396;19397424;6389728;8420320;-0.052;1.044;-0.276;0.1845;0.5125;-0.082;-1;-1;-1
19408;19409672;6384096;8420320;-0.048;1.044;-0.296;0.164;0.533;-0.164;-1;-1;-1
19419;19419248;6390240;8420320;-0.044;1.044;-0.272;0.123;0.451;-0.164;-1;-1;-1
19431;19431496;6387680;8420320;-0.056;1.048;-0.268;0.1435;0.492;-0.123;-1;-1;-1
19443;19444536;6388704;8420320;-0.052;1.052;-0.272;0.123;0.4715;-0.123;-1;-1;-1
19456;19456736;6390240;8420320;-0.056;1.044;-0.272;0.205;0.451;-0.1025;-1;-1;-1
19468;19468952;6385632;8420320;-0.06;1.04;-0.268;0.1435;0.451;-0.082;-1;-1;-1
19480;19482048;6390752;8420320;-0.06;1.044;-0.272;0.1435;0.4305;-0.041;-1;-1;-1
19492;19493376;6384608;8420320;-0.056;1.056;-0.268;0.328;0.492;-0.1025;-1;-1;-1
19503;19503840;6386144;8420320;-0.052;1.048;-0.264;0.246;0.41;-0.123;-1;-1;-1
19515;19516072;6386656;8420320;-0.06;1.036;-0.28;0.246;0.4715;-0.164;-1;-1;-1
19527;19528288;6388704;8420320;-0.052;1.056;-0.276;0.246;0.5535;-0.1845;-1;-1;-1
19539;19540512;6385632;8420320;-0.052;1.04;-0.272;0.1845;0.492;-0.123;-1;-1;-1
19550;19550952;6389728;8420320;-0.06;1.052;-0.292;0.164;0.4305;-0.1025;-1;-1;-1
19562;19563152;6389216;8420320;-0.056;1.04;-0.292;0.164;0.492;-0.1845;-1;-1;-1
19574;19575376;6390752;8420320;-0.068;1.068;-0.256;0.1845;0.492;-0.205;-1;-1;-1
19585;19585832;6389728;8419296;-0.056;1.036;-0.268;0.2255;0.492;-0.1435;-1;-1;-1
19597;19598040;6383072;8419296;-0.044;1.04;-0.28;0.164;0.533;-0.2255;-1;-1;-1
19609;19610232;6384608;8419296;-0.048;1.036;-0.284;0.1845;0.4715;-0.082;-1;-1;-1
19621;19622392;6386144;8419296;-0.044;1.044;-0.296;0.2255;0.4715;-0.082;-1;-1;-1
19632;19632792;6379488;8419296;-0.06;1.052;-0.284;0.1435;0.4715;-0.082;-1;-1;-1
19644;19644944;6384608;8419296;-0.06;1.048;-0.276;0.1435;0.5125;-0.164;-1;-1;-1
19656;19657120;6391264;8419296;-0.052;1.048;-0.264;0.1845;0.492;-0.123;-1;-1;-1
19668;19669328;6386656;8419296;-0.052;1.048;-0.272;0.1845;0.4715;-0.1025;-1;-1;-1
19679;19679816;6384096;8419296;-0.06;1.04;-0.276;0.164;0.4715;-0.1435;-1;-1;-1
19691;19692056;6392288;8419296;-0.052;1.056;-0.284;0.164;0.451;-0.082;-1;-1;-1
19703;19704264;6381024;8419296;-0.048;1.036;-0.268;0.328;0.4715;-0.1025;-1;-1;-1
19714;19714728;6391264;8419296;-0.052;1.044;-0.26;0.123;0.5535;-0.123;-1;-1;-1
19726;19726960;6389216;8419296;-0.06;1.06;-0.264;0.205;0.4715;-0.082;-1;-1;-1
19738;19739128;6392288;8419296;-0.056;1.048;-0.276;0.123;0.533;-0.082;-1;-1;-1
19750;19751312;6387680;8419296;-0.056;1.04;-0.276;0.1435;0.492;-0.1025;-1;-1;-1
19761;19761768;6391264;8419296;-0.056;1.044;-0.268;0.164;0.492;-0.123;-1;-1;-1
19773;19773920;6384096;8419296;-0.056;1.056;-0.28;0.246;0.451;-0.0615;-1;-1;-1
19785;19787032;6384096;8418784;-0.064;1.052;-0.288;0.1845;0.4715;-0.123;-1;-1;-1
19798;19798360;6385120;8418784;-0.048;1.048;-0.264;0.2665;0.4715;-0.082;-1;-1;-1
19810;19810600;6387680;8418784;-0.052;1.036;-0.264;0.2255;0.41;-0.164;-1;-1;-1
19822;19822768;6386656;8418784;-0.064;1.044;-0.276;0.164;0.4715;-0.082;-1;-1;-1
19834;19835008;6385632;8418784;-0.048;1.044;-0.268;0.2255;0.451;-0.1025;-1;-1;-1
19845;19845480;6389728;8418784;-0.052;1.044;-0.272;0.1435;0.492;-0.1435;-1;-1;-1
19857;19857688;6388192;8418784;-0.068;1.064;-0.272;0.2255;0.4715;0.082;-1;-1;-1
19869;19869912;6386656;8418784;-0.072;1.044;-0.276;0.205;0.492;-0.164;-1;-1;-1
19881;19882096;6388704;8418784;-0.04;1.048;-0.268;0.164;0.492;-0.1025;-1;-1;-1
19892;19892568;6389216;8418272;-0.048;1.04;-0.276;0.164;0.533;-0.0615;-1;-1;-1
19904;19904776;6390752;8418272;-0.056;1.048;-0.264;0.205;0.4305;-0.0615;-1;-1;-1
19916;19916992;6384096;8418272;-0.052;1.036;-0.272;0.2255;0.41;-0.082;-1;-1;-1
19927;19927456;6383584;8418272;-0.044;1.036;-0.28;0.2255;0.4715;-0.1025;-1;-1;-1
19939;19939688;6390240;8418272;-0.048;1.048;-0.268;0.164;0.492;-0.123;-1;-1;-1
19951;19951864;6388192;8418272;-0.06;1.044;-0.272;0.1435;0.492;-0.1025;-1;-1;-1
19963;19964056;6391264;8418272;-0.048;1.04;-0.272;0.2665;0.492;-0.1435;-1;-1;-1
19974;19974560;6387680;8418272;-0.056;1.052;-0.264;0.164;0.5125;-0.0615;-1;-1;-1
19986;19986776;6391264;8418272;-0.064;1.06;-0.284;0.205;0.492;-0.123;-1;-1;-1
19998;19999032;6391264;8417760;-0.072;1.052;-0.264;0.1435;0.5535;-0.246;-1;-1;-1
20011;20011208;6389216;8417760;-0.044;1.04;-0.268;0.164;0.4715;-0.164;-1;-1;-1
20023;20023416;6390240;8417760;-0.04;1.052;-0.264;0.164;0.492;-0.1025;-1;-1;-1
20035;20036448;6385120;8417760;-0.052;1.052;-0.244;0.246;0.5535;-0.1025;-1;-1;-1
20047;20048648;6388704;8417760;-0.052;1.044;-0.276;0.205;0.5125;-0.164;-1;-1;-1
20058;20058288;6384608;8417760;-0.052;1.04;-0.284;0.205;0.5125;-0.1435;-1;-1;-1
20070;20070504;6387680;8417760;-0.052;1.052;-0.28;0.2255;0.5125;-0.123;-1;-1;-1
20082;20083584;6383072;8417760;-0.056;1.052;-0.28;0.1435;0.451;-0.164;-1;-1;-1
20094;20095840;6383584;8416736;-0.06;1.06;-0.272;0.205;0.4715;-0.123;-1;-1;-1
20105;20105416;6390752;8416736;-0.06;1.056;-0.288;0.1845;0.451;-0.123;-1;-1;-1
20117;20117616;6386656;8416736;-0.048;1.052;-0.272;0.205;0.492;-0.123;-1;-1;-1
20129;20129856;6391264;8416736;-0.036;1.04;-0.256;0.205;0.5125;-0.164;-1;-1;-1
20140;20140352;6389216;8416736;-0.044;1.032;-0.276;0.1845;0.533;-0.123;-1;-1;-1
20152;20152528;6390752;8416736;-0.056;1.048;-0.284;0.2255;0.5125;-0.123;-1;-1;-1
20164;20164760;6386144;8416736;-0.032;1.036;-0.276;0.2665;0.5125;-0.0615;-1;-1;-1
20176;20176984;6383584;8416736;-0.08;1.044;-0.296;0.164;0.533;-0.1025;-1;-1;-1
20187;20187432;6389728;8416736;-0.064;1.056;-0.276;0.1435;0.5125;-0.1025;-1;-1;-1
20199;20199656;6391264;8416224;-0.056;1.044;-0.268;0.205;0.246;-0.1025;-1;-1;-1
20211;20211840;6386144;8416224;-0.056;1.04;-0.276;0.2255;0.5945;-0.246;-1;-1;-1
20224;20224048;6389728;8416224;-0.064;1.052;-0.288;0.205;0.4715;-0.1435;-1;-1;-1
20236;20237112;6386144;8416224;-0.048;1.044;-0.276;0.205;0.451;-0.205;-1;-1;-1
20248;20249256;6388704;8416224;-0.06;1.048;-0.28;0.205;0.4715;-0.0615;-1;-1;-1
20260;20261480;6387168;8416224;-0.04;1.04;-0.284;0.164;0.4715;-0.082;-1;-1;-1
20271;20271920;6386656;8416224;-0.048;1.036;-0.268;0.123;0.4715;-0.1845;-1;-1;-1
20283;20284152;6386144;8416224;-0.06;1.048;-0.276;0.164;0.4305;-0.082;-1;-1;-1
20295;20296352;6383072;8416224;-0.064;1.052;-0.264;0.164;0.4305;-0.1435;-1;-1;-1
20307;20308600;6386656;8416224;-0.044;1.044;-0.288;0.205;0.4715;-0.1025;-1;-1;-1
20318;20319024;6390240;8416224;-0.04;1.056;-0.272;0.2255;0.4305;-0.123;-1;-1;-1
20330;20331224;6394848;8416224;-0.056;1.056;-0.264;0.164;0.5535;-0.1435;-1;-1;-1
20342;20343400;6390240;8416224;-0.064;1.06;-0.204;0.1435;0.5125;-0.1025;-1;-1;-1
20353;20353816;6383584;8416224;-0.048;1.032;-0.276;0.2255;0.5535;-0.1845;-1;-1;-1
20365;20366032;6388704;8416224;-0.06;1.044;-0.28;0.123;0.492;-0.041;-1;-1;-1
20377;20378216;6389216;8416224;-0.056;1.048;-0.276;0.1845;0.5125;-0.041;-1;-1;-1
20389;20390440;6386144;8416224;-0.052;1.048;-0.276;0.205;0.451;-0.205;-1;-1;-1
20400;20400936;6387680;8415712;-0.06;1.044;-0.26;0.164;0.4715;-0.123;-1;-1;-1
20412;20413120;6385120;8415712;-0.064;1.048;-0.296;0.123;0.5125;-0.0205;-1;-1;-1
20424;20425328;6391776;8415712;-0.044;1.056;-0.28;0.205;0.4715;-0.1025;-1;-1;-1
20436;20437536;6386656;8415712;-0.056;1.048;-0.272;0.2665;0.5125;-0.082;-1;-1;-1
20447;20448000;6389216;8415712;-0.06;1.044;-0.28;0.2255;0.451;-0.041;-1;-1;-1
20459;20460184;6387680;8415712;-0.052;1.048;-0.28;0.123;0.451;-0.1025;-1;-1;-1
20471;20472400;6384608;8415712;-0.06;1.052;-0.308;0.1435;0.5125;-0.1435;-1;-1;-1
20482;20482816;6391264;8415712;-0.052;1.04;-0.284;0.1845;0.5535;-0.164;-1;-1;-1
20494;20495016;6384608;8415712;-0.056;1.052;-0.26;0.1845;0.3485;0;-1;-1;-1
20506;20507272;6389216;8415200;-0.044;1.068;-0.276;0.205;0.369;-0.082;-1;-1;-1
20518;20519504;6387680;8415200;-0.048;1.044;-0.276;0.164;0.5125;-0.123;-1;-1;-1
20529;20529920;6385120;8415200;-0.04;1.036;-0.26;0.1845;0.533;-0.082;-1;-1;-1
20541;20542120;6391264;8415200;-0.052;1.056;-0.284;0.164;0.492;-0.1025;-1;-1;-1
20553;20554312;6390752;8415200;-0.048;1.048;-0.264;0.1435;0.5125;-0.1025;-1;-1;-1
20566;20566512;6388704;8415200;-0.052;1.044;-0.28;0.1435;0.492;-0.0615;-1;-1;-1
20578;20578712;6388192;8415200;-0.056;1.036;-0.3;0.1845;0.5125;-0.0615;-1;-1;-1
20590;20590952;6388704;8415200;-0.064;1.06;-0.276;0.164;0.41;-0.123;-1;-1;-1
20602;20603168;6390240;8415200;-0.056;1.052;-0.268;0.164;0.5125;-0.123;-1;-1;-1
20613;20613600;6388192;8415200;-0.06;1.044;-0.288;0.2665;0.5535;-0.1845;-1;-1;-1
20625;20625840;6388192;8415200;-0.06;1.044;-0.276;0.1845;0.4715;-0.1025;-1;-1;-1
20637;20638056;6389728;8415200;-0.052;1.036;-0.268;0.1435;0.4715;-0.1435;-1;-1;-1
20649;20650256;6388704;8415200;-0.06;1.056;-0.288;0.205;0.5125;-0.082;-1;-1;-1
20660;20660696;6388704;8415200;-0.056;1.04;-0.264;0.2665;0.4305;-0.164;-1;-1;-1
20672;20672880;6385632;8415200;-0.06;1.056;-0.276;0.1845;0.492;-0.082;-1;-1;-1
20684;20685152;6387680;8415200;-0.044;1.044;-0.276;0.1435;0.492;-0.123;-1;-1;-1
20695;20695648;6386144;8415200;-0.048;1.044;-0.276;0.1435;0.451;-0.0205;-1;-1;-1
20707;20707848;6388192;8414688;-0.048;1.056;-0.28;0.1435;0.4715;-0.1435;-1;-1;-1
20719;20720008;6383584;8414688;-0.06;1.052;-0.268;0.2665;0.4305;-0.1435;-1;-1;-1
20731;20732224;6387168;8414688;-0.044;1.044;-0.26;0.1845;0.5125;-0.1025;-1;-1;-1
20742;20742648;6391264;8414688;-0.04;1.044;-0.272;0.1845;0.3485;-0.041;-1;-1;-1
20754;20754872;6386656;8414688;-0.06;1.044;-0.284;0.1435;0.451;-0.1025;-1;-1;-1
20766;20767064;6389728;8414688;-0.032;1.04;-0.268;0.1435;0.5125;-0.1435;-1;-1;-1
20779;20779280;6391264;8414688;-0.056;1.052;-0.264;0.1435;0.5125;-0.0615;-1;-1;-1
20791;20791496;6383584;8414688;-0.052;1.04;-0.256;0.123;0.492;-0.082;-1;-1;-1
20803;20803696;6386144;8414688;-0.04;1.028;-0.268;0.164;0.4305;-0.1845;-1;-1;-1
20815;20816776;6390752;8414176;-0.048;1.044;-0.292;0.205;0.4715;-0.1025;-1;-1;-1
20826;20826360;6383584;8414176;-0.04;1.036;-0.272;0.2255;0.492;-0.2665;-1;-1;-1
20838;20838560;6390752;8414176;-0.048;1.048;-0.276;0.164;0.492;-0.123;-1;-1;-1
20850;20850744;6390752;8414176;-0.068;1.052;-0.272;0.205;0.451;-0.1025;-1;-1;-1
20862;20863832;6389216;8414176;-0.048;1.044;-0.288;0.1845;0.533;-0.123;-1;-1;-1
20873;20873448;6384608;8414176;-0.044;1.048;-0.276;0.246;0.492;-0.0615;-1;-1;-1
20885;20885632;6391264;8414176;-0.052;1.056;-0.276;0.205;0.41;0.0205;-1;-1;-1
20897;20898696;6391264;8414176;-0.04;1.036;-0.26;0.1435;0.4305;-0.164;-1;-1;-1
20908;20908288;6385632;8413664;-0.048;1.04;-0.268;0.205;0.492;-0.1435;-1;-1;-1
20920;20920496;6390240;8413664;-0.068;1.052;-0.276;0.164;0.451;-0.123;-1;-1;-1
20932;20932712;6382048;8413664;-0.052;1.044;-0.296;0.2255;0.451;-0.123;-1;-1;-1
20944;20944952;6389216;8413664;-0.044;1.048;-0.272;0.082;0.492;-0.0205;-1;-1;-1
20955;20955424;6387168;8413664;-0.048;1.048;-0.312;0.246;0.451;-0.0615;-1;-1;-1
20967;20967600;6386144;8413664;-0.048;1.044;-0.276;0.205;0.451;-0.164;-1;-1;-1
20979;20979848;6384608;8413664;-0.056;1.048;-0.28;0.1845;0.4305;-0.1435;-1;-1;-1
20992;20992064;6383584;8413664;-0.056;1.052;-0.28;0.1845;0.451;-0.1025;-1;-1;-1
21004;21005120;6391264;8413664;-0.064;1.056;-0.264;0.164;0.4715;-0.082;-1;-1;-1
21016;21017320;6390752;8413152;-0.044;1.044;-0.272;0.164;0.533;-0.1025;-1;-1;-1
21028;21029536;6384096;8413152;-0.048;1.04;-0.276;0.1845;0.451;-0.082;-1;-1;-1
21039;21039152;6383584;8413152;-0.052;1.052;-0.292;0.246;0.492;-0.1435;-1;-1;-1
21051;21052176;6390752;8413152;-0.052;1.04;-0.272;0.1435;0.533;-0.082;-1;-1;-1
21063;21064360;6389216;8413152;-0.056;1.04;-0.276;0.1845;0.4715;-0.041;-1;-1;-1
21075;21076600;6389728;8413152;-0.044;1.04;-0.268;0.205;0.5125;-0.1435;-1;-1;-1
21086;21087072;6385632;8413152;-0.056;1.048;-0.28;0.205;0.4715;-0.082;-1;-1;-1
21098;21099280;6387680;8413152;-0.06;1.048;-0.28;0.1025;0.4715;-0.0615;-1;-1;-1
21110;21111472;6389216;8412640;-0.04;1.036;-0.256;0.205;0.492;-0.164;-1;-1;-1
21121;21121080;6384608;8412640;-0.052;1.048;-0.28;0.205;0.615;-0.0615;-1;-1;-1
21133;21134160;6392800;8412640;-0.032;1.044;-0.288;0.1845;0.5125;-0.1025;-1;-1;-1
21145;21146336;6389728;8412640;-0.052;1.052;-0.264;0.2255;0.4715;-0.1025;-1;-1;-1
21157;21158504;6392288;8412640;-0.044;1.06;-0.284;0.1435;0.492;-0.1435;-1;-1;-1
21168;21169016;6390752;8412640;-0.052;1.044;-0.272;0.1845;0.492;-0.123;-1;-1;-1
21180;21181208;6390752;8412640;-0.072;1.04;-0.268;0.164;0.5125;-0.164;-1;-1;-1
21192;21193416;6383072;8412640;-0.056;1.048;-0.272;0.1025;0.4715;-0.0615;-1;-1;-1
21204;21205664;6387680;8412640;-0.072;1.052;-0.288;0.2255;0.4305;-0.1435;-1;-1;-1
21215;21216120;6386144;8412128;-0.048;1.04;-0.272;0.1845;0.451;-0.1845;-1;-1;-1
21227;21228320;6389216;8412128;-0.044;1.032;-0.284;0.1435;0.492;-0.1845;-1;-1;-1
21239;21240544;6389728;8412128;-0.036;1.044;-0.28;0.1435;0.4305;-0.164;-1;-1;-1
21250;21250160;6389728;8412128;-0.056;1.04;-0.276;0.205;0.492;-0.123;-1;-1;-1
21262;21263192;6383584;8412128;-0.056;1.048;-0.276;0.123;0.492;-0.123;-1;-1;-1
21274;21275400;6388192;8412128;-0.06;1.044;-0.272;0.1845;0.41;-0.082;-1;-1;-1
21286;21287568;6390240;8412128;-0.032;1.068;-0.312;0.2255;0.492;-0.1845;-1;-1;-1
21297;21298000;6392288;8412128;-0.068;1.048;-0.28;0.2255;0.4715;-0.0205;-1;-1;-1
21309;21310144;6387168;8412128;-0.044;1.048;-0.276;0.123;0.492;-0.0205;-1;-1;-1
21321;21322376;6387680;8411616;-0.052;1.044;-0.256;0.2255;0.3895;-0.082;-1;-1;-1
21334;21334600;6384608;8411616;-0.044;1.04;-0.272;0.205;0.4715;-0.082;-1;-1;-1
21346;21346752;6392800;8411616;-0.056;1.048;-0.272;0.123;0.4715;-0.041;-1;-1;-1
21358;21358960;6390240;8411616;-0.052;1.04;-0.296;0.205;0.5535;-0.041;-1;-1;-1
21370;21371192;6388704;8411616;-0.052;1.04;-0.276;0.123;0.5125;-0.1845;-1;-1;-1
21381;21381608;6390240;8411616;-0.06;1.044;-0.268;0.1435;0.492;-0.1025;-1;-1;-1
21393;21393808;6384608;8411616;-0.056;1.048;-0.268;0.1845;0.5125;-0.1025;-1;-1;-1
21405;21405984;6391776;8411616;-0.06;1.044;-0.272;0.2255;0.4305;-0.123;-1;-1;-1
21417;21418224;6391264;8411616;-0.048;1.036;-0.276;0.123;0.5945;0.0205;-1;-1;-1
21428;21428648;6391264;8411616;-0.052;1.044;-0.26;0.1435;0.451;-0.1025;-1;-1;-1
21440;21440872;6384096;8411616;-0.064;1.052;-0.22;0.2665;0.41;-0.041;-1;-1;-1
21452;21453088;6389728;8411616;-0.052;1.048;-0.296;0.1435;0.4715;-0.1845;-1;-1;-1
21463;21463536;6389216;8411616;-0.06;1.048;-0.256;0.246;0.451;-0.1025;-1;-1;-1
21475;21475768;6392288;8411616;-0.044;1.036;-0.268;0.2255;0.5125;-0.082;-1;-1;-1
21487;21488000;6387168;8411616;-0.06;1.044;-0.272;0.205;0.4715;-0.1435;-1;-1;-1
21499;21500248;6390752;8411616;-0.044;1.04;-0.268;0.246;0.4715;-0.1435;-1;-1;-1
21510;21510696;6389728;8411616;-0.064;1.04;-0.284;0.2665;0.492;-0.1435;-1;-1;-1
21522;21522904;6392288;8411104;-0.056;1.056;-0.248;0.164;0.4715;-0.082;-1;-1;-1
21534;21535088;6392288;8411104;-0.056;1.044;-0.256;0.205;0.451;-0.082;-1;-1;-1
21547;21547272;6390240;8411104;-0.06;1.044;-0.28;0.1845;0.4715;-0.1025;-1;-1;-1
21559;21559504;6388192;8411104;-0.048;1.044;-0.292;0.2255;0.3895;-0.1025;-1;-1;-1
21571;21571680;6389728;8411104;-0.052;1.044;-0.272;0.2255;0.4715;-0.1025;-1;-1;-1
21583;21584744;6388704;8411104;-0.06;1.044;-0.276;0.1845;0.5535;0;-1;-1;-1
21594;21594336;6387168;8411104;-0.056;1.056;-0.272;0.287;0.451;-0.082;-1;-1;-1
21606;21606552;6394336;8411104;-0.048;1.044;-0.268;0.123;0.4715;-0.0615;-1;-1;-1
21618;21618768;6384608;8410592;-0.052;1.044;-0.264;0.1025;0.4715;-0.246;-1;-1;-1
21630;21631848;6390240;8410592;-0.048;1.048;-0.276;0.164;0.4305;-0.1845;-1;-1;-1
21641;21641440;6389728;8410592;-0.06;1.04;-0.268;0.164;0.41;-0.082;-1;-1;-1
21653;21653656;6389728;8410592;-0.052;1.036;-0.264;0.1845;0.492;-0.2255;-1;-1;-1
21665;21665848;6391776;8410592;-0.056;1.056;-0.272;0.1845;0.5125;-0.1435;-1;-1;-1
21676;21676272;6384096;8410592;-0.048;1.048;-0.284;0.1435;0.492;-0.123;-1;-1;-1
21688;21688440;6385120;8410592;-0.06;1.044;-0.288;0.2255;0.3895;-0.1025;-1;-1;-1
21700;21700704;6390752;8410592;-0.056;1.056;-0.276;0.205;0.5125;-0.123;-1;-1;-1
21712;21713752;6389216;8410592;-0.064;1.052;-0.252;0.205;0.492;-0.0205;-1;-1;-1
21723;21723376;6389728;8410080;-0.044;1.044;-0.268;0.1845;0.4715;-0.123;-1;-1;-1
21735;21735576;6391776;8410080;-0.064;1.056;-0.284;0.1435;0.5945;-0.123;-1;-1;-1
21747;21747768;6387168;8410080;-0.052;1.052;-0.28;0.205;0.41;-0.123;-1;-1;-1
21760;21760800;6385120;8410080;-0.064;1.052;-0.276;0.2255;0.492;-0.164;-1;-1;-1
21772;21773024;6387680;8410080;-0.036;1.04;-0.292;0.1435;0.492;-0.1435;-1;-1;-1
21784;21785200;6389728;8410080;-0.056;1.048;-0.284;0.205;0.533;-0.205;-1;-1;-1
21796;21797408;6387680;8410080;-0.052;1.04;-0.264;0.1845;0.451;-0.041;-1;-1;-1
21807;21807872;6390240;8410080;-0.048;1.044;-0.236;0.164;0.492;0.041;-1;-1;-1
21819;21820072;6393824;8410080;-0.04;1.032;-0.268;0.205;0.5125;-0.1435;-1;-1;-1
21831;21832320;6389728;8410080;-0.064;1.052;-0.288;0.082;0.574;-0.1025;-1;-1;-1
21843;21844552;6387168;8410080;-0.052;1.052;-0.26;0.1845;0.574;-0.041;-1;-1;-1
21854;21855024;6390240;8410080;-0.044;1.052;-0.276;0.1845;0.533;-0.164;-1;-1;-1
21866;21867224;6389728;8410080;-0.048;1.048;-0.26;0.1025;0.5125;-0.164;-1;-1;-1
21878;21879456;6393312;8410080;-0.044;1.044;-0.268;0.246;0.4715;-0.1845;-1;-1;-1
21889;21889080;6388192;8410080;-0.06;1.052;-0.272;0.246;0.451;-0.164;-1;-1;-1
21901;21902152;6390240;8410080;-0.056;1.04;-0.272;0.123;0.5535;-0.123;-1;-1;-1
21913;21914312;6385120;8410080;-0.064;1.052;-0.272;0.246;0.492;-0.205;-1;-1;-1
21925;21926552;6390240;8409056;-0.064;1.048;-0.264;0.1845;0.492;-0.1025;-1;-1;-1
21936;21936176;6392800;8409056;-0.064;1.048;-0.28;0.1845;0.533;-0.1435;-1;-1;-1
21948;21949216;6391264;8409056;-0.064;1.052;-0.272;0.3075;0.451;-0.1025;-1;-1;-1
21960;21961408;6388192;8409056;-0.056;1.052;-0.268;0.1845;0.4715;-0.1025;-1;-1;-1
21972;21973616;6390752;8409056;-0.048;1.04;-0.272;0.1435;0.4715;-0.1025;-1;-1;-1
21983;21984096;6390752;8409056;-0.052;1.048;-0.296;0.1845;0.4715;-0.123;-1;-1;-1
21995;21996296;6392288;8409056;-0.052;1.044;-0.268;0.1025;0.533;-0.1435;-1;-1;-1
22007;22008480;6389728;8409056;-0.048;1.052;-0.276;0.1845;0.451;-0.123;-1;-1;-1
22018;22018136;6392800;8409056;-0.044;1.048;-0.276;0.1435;0.492;-0.1435;-1;-1;-1
22030;22030392;6392800;8409056;-0.064;1.04;-0.268;0.1845;0.5125;-0.041;-1;-1;-1
22042;22043424;6390752;8409056;-0.044;1.048;-0.288;0.1845;0.451;-0.123;-1;-1;-1
22054;22055640;6385632;8409056;-0.048;1.044;-0.288;0.1025;0.533;-0.041;-1;-1;-1
22065;22065256;6388704;8409056;-0.064;1.056;-0.26;0.2255;0.533;-0.164;-1;-1;-1
22077;22078336;6390752;8409056;-0.052;1.04;-0.28;0.246;0.4715;-0.164;-1;-1;-1
22089;22090560;6390752;8409056;-0.068;1.048;-0.272;0.1845;0.451;-0.041;-1;-1;-1
22102;22102720;6392800;8409056;-0.056;1.044;-0.28;0.1845;0.451;-0.082;-1;-1;-1
22114;22114928;6388192;8409056;-0.06;1.044;-0.272;0.205;0.4715;-0.1025;-1;-1;-1
22126;22128048;6391264;8408544;-0.056;1.044;-0.288;0.1435;0.492;-0.0615;-1;-1;-1
22138;22139424;6391264;8408544;-0.056;1.044;-0.276;0.328;0.3895;-0.1435;-1;-1;-1
22149;22149880;6388192;8408544;-0.056;1.036;-0.312;0.1845;0.492;-0.123;-1;-1;-1
22161;22162080;6387168;8408544;-0.068;1.068;-0.28;0.1845;0.533;-0.0205;-1;-1;-1
22173;22174328;6388192;8408544;-0.044;1.048;-0.264;0.1435;0.492;-0.1025;-1;-1;-1
22185;22186536;6391264;8408544;-0.048;1.048;-0.288;0.1435;0.492;-0.0615;-1;-1;-1
22196;22197000;6392800;8408544;-0.04;1.044;-0.28;0.164;0.4715;-0.123;-1;-1;-1
22208;22209200;6390752;8408544;-0.064;1.044;-0.284;0.1435;0.533;-0.1025;-1;-1;-1
22220;22221440;6389728;8408544;-0.056;1.052;-0.304;0.164;0.4715;-0.1435;-1;-1;-1
22231;22231936;6388192;8408032;-0.064;1.052;-0.276;0.164;0.4305;-0.0615;-1;-1;-1
22243;22244160;6391264;8408032;-0.056;1.036;-0.268;0.164;0.4715;-0.1435;-1;-1;-1
22255;22256336;6388704;8408032;-0.056;1.04;-0.276;0.1845;0.4715;-0.0615;-1;-1;-1
22267;22268584;6392800;8408032;-0.056;1.056;-0.288;0.1845;0.492;-0.123;-1;-1;-1
22278;22278200;6392288;8408032;-0.048;1.032;-0.288;0.205;0.492;-0.1025;-1;-1;-1
22290;22291304;6387168;8408032;-0.036;1.052;-0.284;0.205;0.4715;-0.0205;-1;-1;-1
22302;22303480;6393312;8408032;-0.056;1.048;-0.256;0.246;0.5125;-0.0615;-1;-1;-1
22315;22315648;6392288;8408032;-0.048;1.044;-0.268;0.1435;0.5535;-0.123;-1;-1;-1
22327;22327848;6390240;8408032;-0.06;1.04;-0.272;0.1845;0.5125;-0.0615;-1;-1;-1
22339;22340064;6391264;8408032;-0.052;1.056;-0.268;0.2255;0.5125;-0.246;-1;-1;-1
22351;22352248;6388192;8408032;-0.052;1.032;-0.296;0.1845;0.5125;-0.1845;-1;-1;-1
22362;22362728;6387680;8408032;-0.044;1.044;-0.26;0.164;0.451;-0.123;-1;-1;-1
22374;22375016;6387168;8408032;-0.052;1.036;-0.256;0.205;0.4715;-0.164;-1;-1;-1
22386;22387256;6390240;8408032;-0.06;1.06;-0.296;0.2255;0.4305;-0.1845;-1;-1;-1
22398;22399432;6390240;8408032;-0.052;1.044;-0.272;0.2255;0.451;-0.082;-1;-1;-1
22409;22409888;6390240;8408032;-0.04;1.044;-0.268;0.205;0.4305;-0.1025;-1;-1;-1
22421;22422104;6389216;8408032;-0.06;1.052;-0.264;0.2255;0.4715;-0.082;-1;-1;-1
22433;22434320;6392288;8407520;-0.06;1.06;-0.264;0.1025;0.533;-0.205;-1;-1;-1
22444;22444808;6387680;8407520;-0.052;1.04;-0.292;0.164;0.5125;-0.123;-1;-1;-1
22456;22457032;6383584;8407520;-0.052;1.044;-0.292;0.246;0.4305;-0.205;-1;-1;-1
22468;22469208;6393312;8407520;-0.052;1.056;-0.248;0.164;0.4305;-0.1845;-1;-1;-1
22480;22481440;6390752;8407520;-0.056;1.048;-0.26;0.205;0.4715;-0.0615;-1;-1;-1
22491;22491928;6390752;8407520;-0.056;1.044;-0.272;0.205;0.4715;-0.1845;-1;-1;-1
22503;22504112;6392800;8407520;-0.052;1.048;-0.268;0.123;0.492;-0.164;-1;-1;-1
22515;22516344;6391776;8407520;-0.056;1.052;-0.28;0.205;0.369;-0.123;-1;-1;-1
22528;22528520;6393824;8407520;-0.056;1.04;-0.284;0.2255;0.5125;-0.1845;-1;-1;-1
22540;22540704;6392288;8407008;-0.088;1.044;-0.332;0.1845;0.5125;-0.123;-1;-1;-1
22552;22552944;6390240;8407008;-0.048;1.032;-0.276;0.164;0.451;-0.1435;-1;-1;-1
22564;22565160;6381024;8407008;-0.064;1.056;-0.292;0.246;0.451;-0.123;-1;-1;-1
22575;22575576;6387680;8407008;-0.048;1.044;-0.276;0.1435;0.574;-0.1845;-1;-1;-1
22587;22587784;6390240;8407008;-0.048;1.04;-0.276;0.164;0.451;-0.1435;-1;-1;-1
22599;22600008;6392800;8407008;-0.056;1.044;-0.26;0.2255;0.4305;-0.1845;-1;-1;-1
22611;22612248;6391264;8407008;-0.044;1.036;-0.284;0.1845;0.492;-0.1025;-1;-1;-1
22622;22622712;6393312;8407008;-0.048;1.056;-0.292;0.123;0.5125;-0.0615;-1;-1;-1
22634;22635792;6384608;8407008;-0.06;1.044;-0.268;0.1845;0.492;-0.123;-1;-1;-1
22646;22647144;6391776;8407008;-0.052;1.048;-0.276;0.164;0.533;-0.0615;-1;-1;-1
22657;22657608;6392800;8407008;-0.048;1.04;-0.28;0.2255;0.451;-0.164;-1;-1;-1
22669;22669768;6391264;8407008;-0.056;1.052;-0.268;0.123;0.5535;-0.0615;-1;-1;-1
22681;22681984;6391264;8407008;-0.056;1.048;-0.272;0.287;0.492;-0.1025;-1;-1;-1
22693;22694216;6387168;8407008;-0.06;1.048;-0.296;0.1845;0.4715;-0.123;-1;-1;-1
22704;22704664;6388704;8407008;-0.06;1.044;-0.28;0.1435;0.4305;-0.082;-1;-1;-1
22716;22716840;6394848;8407008;-0.052;1.052;-0.284;0.2255;0.4305;-0.1845;-1;-1;-1
22728;22729056;6392800;8407008;-0.052;1.036;-0.264;0.1435;0.492;-0.041;-1;-1;-1
22740;22741296;6393824;8405984;-0.044;1.044;-0.3;0.287;0.492;-0.123;-1;-1;-1
22751;22751760;6392288;8405984;-0.04;1.052;-0.252;0.205;0.492;-0.1845;-1;-1;-1
22763;22763976;6388192;8405984;-0.056;1.06;-0.296;0.164;0.451;-0.1025;-1;-1;-1
22775;22776168;6391264;8405984;-0.048;1.044;-0.268;0.164;0.4715;-0.123;-1;-1;-1
22786;22786592;6392800;8405984;-0.06;1.048;-0.28;0.1845;0.533;-0.246;-1;-1;-1
22798;22798808;6386656;8405984;-0.048;1.04;-0.276;0.1025;0.492;-0.1025;-1;-1;-1
22810;22811032;6392288;8405984;-0.048;1.044;-0.272;0.1845;0.5125;-0.164;-1;-1;-1
22822;22823200;6385120;8405984;-0.068;1.056;-0.28;0.2665;0.492;-0.1025;-1;-1;-1
22833;22833672;6389728;8405984;-0.056;1.036;-0.28;0.1845;0.697;-0.082;-1;-1;-1
22845;22845848;6391776;8405984;-0.056;1.04;-0.28;0.082;0.697;0.0615;-1;-1;-1
22857;22858088;6391776;8405984;-0.056;1.064;-0.264;0.1845;0.492;-0.1435;-1;-1;-1
22870;22870328;6389728;8405984;-0.052;1.072;-0.288;0.1435;0.574;-0.1435;-1;-1;-1
22882;22882504;6390752;8405984;-0.052;1.052;-0.28;0.246;0.4305;-0.1435;-1;-1;-1
22894;22894680;6391264;8405984;-0.052;1.052;-0.272;0.123;0.5535;-0.164;-1;-1;-1
22906;22906936;6388704;8405984;-0.052;1.052;-0.272;0.123;0.451;-0.082;-1;-1;-1
22917;22917344;6388704;8405984;-0.056;1.056;-0.268;0.2255;0.4715;-0.123;-1;-1;-1
22929;22929520;6389728;8405984;-0.056;1.048;-0.272;0.123;0.533;-0.041;-1;-1;-1
22941;22941744;6384096;8404960;-0.056;1.036;-0.276;0.205;0.451;-0.164;-1;-1;-1
22953;22954832;6390752;8404960;-0.028;1.04;-0.272;0.1845;0.492;-0.041;-1;-1;-1
22964;22964400;6393824;8404960;-0.06;1.044;-0.272;0.205;0.451;-0.0205;-1;-1;-1
22976;22976600;6390240;8404960;-0.052;1.06;-0.284;0.2255;0.41;-0.1435;-1;-1;-1
22988;22989664;6391776;8404960;-0.06;1.044;-0.26;0.205;0.5125;-0.082;-1;-1;-1
22999;22999256;6388192;8404960;-0.032;1.052;-0.268;0.164;0.4715;-0.123;-1;-1;-1
23011;23011440;6392800;8404960;-0.056;1.052;-0.272;0.205;0.492;-0.1025;-1;-1;-1
23023;23024520;6389728;8404960;-0.056;1.044;-0.264;0.246;0.574;-0.082;-1;-1;-1
23035;23036720;6388192;8404960;-0.052;1.04;-0.284;0.164;0.5535;-0.205;-1;-1;-1
23046;23046328;6393312;8404960;-0.048;1.052;-0.28;0.205;0.4715;-0.1025;-1;-1;-1
23058;23058544;6392800;8404960;-0.052;1.052;-0.276;0.2255;0.451;-0.123;-1;-1;-1
23070;23071608;6386144;8404960;-0.072;1.044;-0.268;0.123;0.5125;-0.082;-1;-1;-1
23083;23083824;6394336;8404960;-0.052;1.04;-0.288;0.1845;0.451;-0.1025;-1;-1;-1
23095;23096032;6382560;8404960;-0.06;1.048;-0.252;0.205;0.492;-0.082;-1;-1;-1
23107;23108216;6388192;8404960;-0.044;1.052;-0.272;0.164;0.451;-0.0615;-1;-1;-1
23119;23120424;6389728;8404960;-0.052;1.036;-0.288;0.164;0.5945;-0.082;-1;-1;-1
23130;23130840;6388704;8404960;-0.084;1.08;-0.304;0.164;0.492;-0.0205;-1;-1;-1
23142;23143968;6388192;8404960;-0.048;1.04;-0.288;0.1845;0.451;-0.1025;-1;-1;-1
23154;23155360;6383072;8404960;-0.06;1.048;-0.284;0.1845;0.4715;-0.041;-1;-1;-1
23166;23167592;6391264;8404960;-0.06;1.044;-0.276;0.2255;0.4715;-0.1435;-1;-1;-1
23177;23178064;6390240;8404960;-0.02;1.056;-0.288;0.164;0.4715;-0.1025;-1;-1;-1
23189;23190264;6389216;8404960;-0.04;1.048;-0.268;0.246;0.4715;-0.041;-1;-1;-1
23201;23202456;6391776;8404960;-0.052;1.04;-0.272;0.123;0.492;-0.082;-1;-1;-1
23212;23212904;6386656;8404960;-0.048;1.036;-0.268;0.164;0.451;-0.082;-1;-1;-1
23224;23225064;6392800;8404960;-0.056;1.052;-0.264;0.164;0.492;-0.123;-1;-1;-1
23236;23237312;6394336;8404960;-0.048;1.048;-0.264;0.205;0.4715;-0.1435;-1;-1;-1
23248;23249528;6390752;8403936;-0.04;1.048;-0.268;0.164;0.451;-0.123;-1;-1;-1
23259;23260032;6388704;8403936;-0.048;1.036;-0.268;0.1845;0.533;-0.0615;-1;-1;-1
23271;23272232;6392800;8403936;-0.052;1.044;-0.268;0.1845;0.4715;-0.1435;-1;-1;-1
23283;23284408;6390240;8403936;-0.044;1.04;-0.264;0.2255;0.4715;-0.0615;-1;-1;-1
23296;23296648;6390752;8403936;-0.052;1.044;-0.272;0.2665;0.451;-0.164;-1;-1;-1
23308;23308896;6389216;8403936;-0.06;1.052;-0.284;0.1435;0.533;-0.164;-1;-1;-1
23320;23321120;6392800;8403936;-0.056;1.052;-0.264;0.2255;0.4305;-0.1435;-1;-1;-1
23332;23333280;6391264;8403936;-0.044;1.044;-0.288;0.2255;0.4715;-0.1025;-1;-1;-1
23343;23343760;6387168;8403936;-0.048;1.048;-0.268;0.2255;0.492;-0.2255;-1;-1;-1
23355;23355984;6392800;8403424;-0.036;1.044;-0.296;0.1845;0.492;-0.1845;-1;-1;-1
23367;23368160;6393312;8403424;-0.056;1.052;-0.272;0.205;0.492;-0.1025;-1;-1;-1
23379;23380392;6392800;8403424;-0.04;1.036;-0.272;0.246;0.492;-0.1435;-1;-1;-1
23390;23390848;6393312;8403424;-0.052;1.052;-0.276;0.1025;0.4715;-0.0615;-1;-1;-1
23402;23403032;6392288;8403424;-0.06;1.056;-0.264;0.287;0.492;-0.205;-1;-1;-1
23414;23415264;6390752;8403424;-0.048;1.032;-0.28;0.1025;0.492;-0.082;-1;-1;-1
23425;23425720;6393312;8403424;-0.056;1.044;-0.268;0.2255;0.451;-0.1025;-1;-1;-1
23437;23437952;6390752;8403424;-0.068;1.056;-0.264;0.1845;0.451;-0.164;-1;-1;-1
23449;23450176;6396384;8402912;-0.052;1.052;-0.276;0.2255;0.3485;-0.041;-1;-1;-1
23461;23462352;6390240;8402912;-0.052;1.048;-0.272;0.1025;0.574;-0.082;-1;-1;-1
23472;23472808;6390240;8402912;-0.052;1.056;-0.288;0.205;0.4305;-0.1435;-1;-1;-1
23484;23485032;6392800;8402912;-0.06;1.052;-0.236;0.1845;0.492;-0.164;-1;-1;-1
23496;23497232;6391776;8402912;-0.06;1.04;-0.284;0.1845;0.4715;-0.1025;-1;-1;-1
23508;23509440;6389216;8402912;-0.06;1.056;-0.268;0.1435;0.4715;-0.0615;-1;-1;-1
23519;23519944;6388192;8402912;-0.056;1.048;-0.252;0.2255;0.451;-0.123;-1;-1;-1
23531;23532128;6390752;8402912;-0.052;1.052;-0.28;0.2255;0.492;-0.246;-1;-1;-1
23543;23544296;6388704;8402912;-0.064;1.044;-0.28;0.164;0.5125;0.0615;-1;-1;-1
23554;23554776;6388192;8402912;-0.04;1.04;-0.284;0.1845;0.533;-0.0615;-1;-1;-1
23566;23566976;6388704;8402912;-0.048;1.048;-0.252;0.164;0.4715;-0.0615;-1;-1;-1
23578;23579176;6383584;8402912;-0.032;1.04;-0.288;0.246;0.5535;-0.123;-1;-1;-1
23590;23591360;6387168;8402912;-0.04;1.048;-0.276;0.1845;0.5125;-0.0615;-1;-1;-1
23601;23601816;6388704;8402912;-0.056;1.04;-0.288;0.164;0.4715;-0.0615;-1;-1;-1
23613;23614008;6389216;8402912;-0.048;1.048;-0.3;0.205;0.451;-0.0205;-1;-1;-1
23625;23626200;6389216;8402912;-0.052;1.056;-0.256;0.164;0.5945;-0.082;-1;-1;-1
23638;23638416;6386144;8402912;-0.052;1.056;-0.26;0.1845;0.4305;-0.0615;-1;-1;-1
23650;23650616;6392800;8402912;-0.056;1.064;-0.284;0.164;0.5125;-0.082;-1;-1;-1
23662;23662816;6388704;8402912;-0.056;1.048;-0.28;0.1845;0.451;-0.123;-1;-1;-1
23674;23675040;6390240;8402912;-0.052;1.04;-0.268;0.2255;0.5125;-0.2255;-1;-1;-1
23685;23685488;6389216;8402912;-0.056;1.052;-0.288;0.164;0.4715;-0.082;-1;-1;-1
23697;23697672;6392800;8402912;-0.056;1.056;-0.284;0.205;0.4305;-0.164;-1;-1;-1
23709;23709848;6394848;8402912;-0.056;1.048;-0.276;0.1025;0.533;0;-1;-1;-1
23721;23722072;6387680;8402912;-0.056;1.04;-0.292;0.1025;0.656;-0.1435;-1;-1;-1
23732;23732496;6392288;8402912;-0.06;1.052;-0.284;0.205;0.4715;-0.082;-1;-1;-1
23744;23744696;6389728;8402912;-0.064;1.048;-0.276;0.164;0.5125;-0.123;-1;-1;-1
23756;23756880;6394336;8402400;-0.064;1.052;-0.264;0.1845;0.4715;-0.1025;-1;-1;-1
23767;23767352;6393312;8402400;-0.056;1.052;-0.28;0.1845;0.492;-0.1025;-1;-1;-1
23779;23779568;6386144;8402400;-0.06;1.048;-0.268;0.2255;0.451;-0.1435;-1;-1;-1
23791;23791800;6392800;8402400;-0.06;1.044;-0.276;0.164;0.574;-0.1435;-1;-1;-1
23803;23804008;6389728;8402400;-0.048;1.056;-0.28;0.1435;0.5125;-0.082;-1;-1;-1
23814;23814488;6384608;8402400;-0.056;1.048;-0.264;0.123;0.5535;-0.1435;-1;-1;-1
23826;23826696;6390240;8402400;-0.056;1.048;-0.268;0.369;0.533;-0.0615;-1;-1;-1
23838;23838896;6390240;8402400;-0.064;1.048;-0.276;0.1845;0.41;-0.123;-1;-1;-1
23851;23851112;6392800;8402400;-0.052;1.044;-0.272;0.205;0.451;-0.1025;-1;-1;-1
23863;23863376;6387168;8401888;-0.06;1.044;-0.268;0.2255;0.533;-0.1435;-1;-1;-1
23875;23876384;6385632;8401888;-0.044;1.036;-0.264;0.1025;0.574;-0.082;-1;-1;-1
23887;23888560;6388192;8401888;-0.048;1.036;-0.248;0.2665;0.451;-0.082;-1;-1;-1
23898;23898168;6394336;8401888;-0.052;1.048;-0.272;0.205;0.5125;-0.164;-1;-1;-1
23910;23911240;6383584;8401888;-0.08;1.08;-0.296;0.2255;0.492;-0.041;-1;-1;-1
23922;23923416;6389728;8401888;-0.056;1.044;-0.28;0.205;0.41;-0.123;-1;-1;-1
23934;23935632;6387680;8401888;-0.048;1.04;-0.276;0.246;0.3485;-0.041;-1;-1;-1
23945;23945272;6395360;8401888;-0.064;1.06;-0.264;0.1845;0.451;-0.123;-1;-1;-1
23957;23958384;6392288;8401376;-0.032;1.044;-0.26;0.1845;0.451;-0.1435;-1;-1;-1
23969;23970592;6387168;8401376;-0.048;1.048;-0.288;0.205;0.4715;-0.164;-1;-1;-1
23980;23980184;6393824;8401376;-0.052;1.048;-0.252;0.1845;0.492;-0.1025;-1;-1;-1
23992;23992400;6391264;8401376;-0.064;1.056;-0.268;0.1435;0.4305;-0.082;-1;-1;-1
24004;24005456;6392800;8401376;-0.056;1.052;-0.288;0.123;0.492;-0.164;-1;-1;-1
24016;24017640;6389728;8401376;-0.06;1.056;-0.276;0.164;0.533;-0.082;-1;-1;-1
24027;24027224;6390752;8401376;-0.064;1.056;-0.276;0.164;0.492;-0.287;-1;-1;-1
24039;24039472;6389216;8401376;-0.044;1.052;-0.276;0.1435;0.451;-0.123;-1;-1;-1
24051;24052544;6390752;8401376;-0.048;1.048;-0.276;0.1435;0.5125;-0.1025;-1;-1;-1
24064;24064784;6388704;8401376;-0.04;1.044;-0.272;0.1845;0.4715;-0.2255;-1;-1;-1
24076;24076992;6388192;8401376;-0.04;1.036;-0.288;0.2665;0.41;-0.1025;-1;-1;-1
24088;24089192;6391264;8401376;-0.06;1.048;-0.276;0.2255;0.4715;-0.123;-1;-1;-1
24100;24101376;6390752;8401376;-0.052;1.044;-0.284;0.164;0.533;-0.123;-1;-1;-1
24111;24111816;6390752;8401376;-0.06;1.056;-0.264;0.164;0.574;-0.123;-1;-1;-1
24123;24124000;6392800;8401376;-0.064;1.048;-0.292;0.123;0.5125;-0.123;-1;-1;-1
24135;24136216;6393312;8401376;-0.064;1.056;-0.268;0.2255;0.41;-0.0205;-1;-1;-1
24147;24148424;6394336;8401376;-0.052;1.044;-0.28;0.246;0.4305;-0.0615;-1;-1;-1
24158;24159768;6390240;8401376;-0.052;1.032;-0.28;0.123;0.492;-0.082;-1;-1;-1
24170;24171120;6392800;8401376;-0.064;1.044;-0.276;0.164;0.533;-0.164;-1;-1;-1
24182;24183304;6393824;8401376;-0.06;1.056;-0.288;0.1435;0.492;-0.1845;-1;-1;-1
24193;24193728;6388704;8401376;-0.056;1.048;-0.268;0.1845;0.533;-0.1025;-1;-1;-1
24205;24205920;6387680;8401376;-0.048;1.056;-0.292;0.1845;0.4715;-0.082;-1;-1;-1
24217;24218096;6395360;8401376;-0.048;1.032;-0.276;0.2255;0.4715;-0.1435;-1;-1;-1
24229;24230280;6393312;8401376;-0.056;1.052;-0.288;0.1845;0.4715;-0.123;-1;-1;-1
24240;24240752;6393312;8401376;-0.056;1.036;-0.256;0.205;0.533;-0.082;-1;-1;-1
24252;24252920;6391776;8401376;-0.044;1.036;-0.28;0.2255;0.451;-0.3075;-1;-1;-1
24264;24265112;6392288;8400864;-0.056;1.036;-0.284;0.205;0.451;-0.1845;-1;-1;-1
24276;24277344;6393312;8400864;-0.044;1.048;-0.264;0.205;0.4715;-0.1435;-1;-1;-1
24287;24287784;6392800;8400864;-0.056;1.048;-0.3;0.2255;0.4715;-0.2665;-1;-1;-1
24299;24300032;6388704;8400864;-0.06;1.06;-0.264;0.246;0.4715;-0.0615;-1;-1;-1
24311;24312216;6390240;8400864;-0.064;1.052;-0.256;0.205;0.492;-0.082;-1;-1;-1
24322;24322672;6393824;8400864;-0.064;1.048;-0.264;0.205;0.3895;-0.205;-1;-1;-1
24334;24334832;6389728;8400864;-0.068;1.064;-0.264;0.2665;0.4715;-0.1025;-1;-1;-1
24346;24347048;6390752;8400864;-0.06;1.072;-0.288;0.205;0.3895;-0.2255;-1;-1;-1
24358;24359240;6392288;8400864;-0.048;1.032;-0.284;0.1025;0.5125;-0.123;-1;-1;-1
24369;24369728;6395360;8400864;-0.052;1.052;-0.252;0.1435;0.5535;-0.123;-1;-1;-1
24381;24381952;6392800;8400864;-0.056;1.044;-0.276;0.246;0.4305;-0.0205;-1;-1;-1
24393;24394152;6392288;8400864;-0.044;1.052;-0.272;0.123;0.492;-0.0615;-1;-1;-1
24406;24406376;6390752;8400864;-0.052;1.04;-0.28;0.123;0.492;-0.0615;-1;-1;-1
24418;24418640;6389216;8400864;-0.04;1.044;-0.232;0.205;0.4715;-0.0615;-1;-1;-1
24430;24430832;6390752;8400864;-0.056;1.06;-0.276;0.164;0.492;-0.164;-1;-1;-1
24442;24443016;6391776;8400864;-0.04;1.06;-0.268;0.164;0.5125;-0.164;-1;-1;-1
24453;24453472;6392800;8400864;-0.048;1.052;-0.288;0.287;0.3895;-0.1025;-1;-1;-1
24465;24465720;6393824;8400864;-0.04;1.052;-0.276;0.205;0.4715;-0.164;-1;-1;-1
24477;24477912;6391776;8399840;-0.048;1.044;-0.292;0.164;0.451;-0.164;-1;-1;-1
24489;24490088;6391264;8399840;-0.044;1.04;-0.228;0.123;0.5125;-0.0615;-1;-1;-1
24500;24500568;6389216;8399840;-0.056;1.048;-0.296;0.205;0.4715;-0.164;-1;-1;-1
24512;24512752;6395872;8399840;-0.048;1.036;-0.272;0.246;0.492;-0.123;-1;-1;-1
24524;24524944;6391264;8399840;-0.044;1.052;-0.284;0.205;0.492;-0.0615;-1;-1;-1
24535;24535400;6392800;8399840;-0.052;1.052;-0.268;0.2665;0.4305;-0.246;-1;-1;-1
24547;24547648;6390752;8399840;-0.056;1.048;-0.264;0.123;0.492;-0.041;-1;-1;-1
24559;24559832;6387680;8399840;-0.068;1.052;-0.268;0.164;0.5125;-0.1025;-1;-1;-1
24571;24572016;6392800;8400352;-0.044;1.04;-0.292;0.205;0.451;-0.1435;-1;-1;-1
24582;24582472;6391264;8400352;-0.064;1.06;-0.252;0.164;0.451;-0.164;-1;-1;-1
24594;24594688;6390240;8400352;-0.056;1.048;-0.276;0.164;0.5125;-0.082;-1;-1;-1
24606;24606896;6393824;8400352;-0.056;1.056;-0.268;0.205;0.4305;-0.164;-1;-1;-1
24619;24619112;6390752;8400352;-0.056;1.04;-0.284;0.1435;0.492;-0.082;-1;-1;-1
24631;24632160;6392800;8400352;-0.052;1.044;-0.268;0.3075;0.451;-0.2255;-1;-1;-1
24643;24644360;6393824;8400352;-0.052;1.028;-0.284;0.164;0.492;-0.164;-1;-1;-1
24655;24656528;6391776;8400352;-0.064;1.044;-0.28;0.123;0.492;-0.1435;-1;-1;-1
24666;24666992;6388704;8400352;-0.048;1.044;-0.272;0.164;0.451;-0.1435;-1;-1;-1
24678;24679200;6390752;8399840;-0.064;1.064;-0.268;0.2255;0.451;-0.082;-1;-1;-1
24690;24691400;6393824;8399840;-0.056;1.052;-0.276;0.1845;0.533;-0.1435;-1;-1;-1
24702;24703632;6389728;8399840;-0.056;1.04;-0.276;0.1435;0.492;-0.1845;-1;-1;-1
24713;24714088;6389216;8399840;-0.052;1.048;-0.28;0.1025;0.492;-0.123;-1;-1;-1
24725;24726240;6389728;8399840;-0.052;1.052;-0.28;0.1845;0.5125;-0.1435;-1;-1;-1
24737;24738464;6392288;8399840;-0.044;1.036;-0.288;0.205;0.492;-0.1025;-1;-1;-1
24748;24748080;6392288;8399840;-0.028;1.052;-0.288;0.164;0.5125;-0.1845;-1;-1;-1
24760;24761112;6391264;8399840;-0.052;1.052;-0.264;0.1845;0.4715;-0.041;-1;-1;-1
24772;24773264;6389216;8399328;-0.052;1.06;-0.28;0.164;0.451;-0.082;-1;-1;-1
24784;24785496;6391264;8399328;-0.04;1.04;-0.264;0.205;0.451;-0.1435;-1;-1;-1
24795;24795976;6391776;8399328;-0.06;1.06;-0.284;0.1845;0.5535;-0.1435;-1;-1;-1
24807;24808192;6390752;8399328;-0.064;1.044;-0.272;0.205;0.451;-0.082;-1;-1;-1
24819;24820424;6393312;8399328;-0.06;1.048;-0.272;0.164;0.492;-0.082;-1;-1;-1
24832;24832664;6389216;8399328;-0.056;1.052;-0.3;0.164;0.6765;-0.082;-1;-1;-1
24844;24844848;6389728;8399328;-0.04;1.044;-0.284;0.205;0.4305;-0.123;-1;-1;-1
24856;24857048;6391776;8399328;-0.028;1.036;-0.252;0.123;0.4305;-0.0615;-1;-1;-1
24868;24869232;6390752;8399328;-0.056;1.056;-0.28;0.1845;0.451;-0.123;-1;-1;-1
24879;24879704;6391264;8398816;-0.056;1.048;-0.268;0.205;0.4305;-0.3895;-1;-1;-1
24891;24891896;6391776;8398816;-0.06;1.048;-0.28;0.2255;0.4305;-0.123;-1;-1;-1
24903;24904088;6392800;8398816;-0.052;1.052;-0.264;0.1435;0.533;-0.164;-1;-1;-1
24915;24916328;6394336;8398816;-0.024;1.06;-0.292;0.205;0.451;-0.041;-1;-1;-1
24926;24926760;6392288;8398816;-0.068;1.044;-0.288;0.1845;0.533;-0.1435;-1;-1;-1
24938;24938968;6392800;8398816;-0.048;1.064;-0.26;0.1025;0.5125;-0.1025;-1;-1;-1
24950;24951184;6389728;8398816;-0.052;1.036;-0.272;0.2255;0.533;-0.082;-1;-1;-1
24961;24961664;6390240;8398816;-0.06;1.052;-0.288;0.123;0.4715;-0.041;-1;-1;-1
24973;24974696;6393312;8398816;-0.048;1.04;-0.276;0.205;0.4305;-0.082;-1;-1;-1
24985;24986040;6393824;8398816;-0.06;1.048;-0.264;0.246;0.5125;-0.164;-1;-1;-1
24997;24998256;6388192;8398816;-0.06;1.048;-0.288;0.287;0.451;-0.1845;-1;-1;-1
25008;25008712;6393824;8398816;-0.068;1.056;-0.268;0.164;0.5535;-0.082;-1;-1;-1
25020;25020872;6390240;8398816;-0.056;1.044;-0.268;0.246;0.492;-0.0615;-1;-1;-1
25032;25033104;6392800;8398816;-0.052;1.036;-0.296;0.164;0.41;-0.041;-1;-1;-1
25044;25045312;6389728;8398816;-0.056;1.048;-0.276;0.1845;0.4715;-0.0615;-1;-1;-1
25055;25055816;6393824;8398816;-0.048;1.052;-0.284;0.3485;0.328;-0.0615;-1;-1;-1
25067;25068016;6391264;8398816;-0.04;1.048;-0.268;0.0615;0.656;-0.123;-1;-1;-1
25079;25080216;6392288;8398304;-0.06;1.048;-0.292;0.164;0.4715;-0.1845;-1;-1;-1
25090;25090704;6385632;8398304;-0.056;1.048;-0.272;0.287;0.451;-0.1845;-1;-1;-1
25102;25102920;6391264;8398304;-0.044;1.036;-0.284;0.2255;0.4305;-0.041;-1;-1;-1
25114;25115104;6393312;8398304;-0.052;1.048;-0.272;0.1845;0.492;-0.082;-1;-1;-1
25126;25127336;6389728;8398304;-0.056;1.06;-0.284;0.246;0.5125;-0.164;-1;-1;-1
25137;25137792;6389728;8398304;-0.052;1.036;-0.268;0.164;0.533;-0.164;-1;-1;-1
25149;25149960;6387168;8398304;-0.052;1.04;-0.268;0.205;0.451;-0.123;-1;-1;-1
25161;25162176;6389216;8398304;-0.068;1.052;-0.284;0.164;0.4715;-0.1435;-1;-1;-1
25174;25174416;6394848;8398304;-0.052;1.052;-0.288;0.0205;0.6355;-0.041;-1;-1;-1
25186;25186656;6396384;8398304;-0.06;1.056;-0.268;0.1845;0.574;0.0205;-1;-1;-1
25198;25198880;6394336;8398304;-0.052;1.04;-0.272;0.164;0.451;-0.123;-1;-1;-1
25210;25211048;6394336;8398304;-0.048;1.044;-0.26;0.1845;0.492;-0.123;-1;-1;-1
25221;25221520;6391776;8398304;-0.056;1.048;-0.268;0.1845;0.5125;-0.082;-1;-1;-1
25233;25233728;6394848;8398304;-0.056;1.044;-0.284;0.1845;0.451;-0.082;-1;-1;-1
25245;25245904;6389216;8398304;-0.06;1.04;-0.272;0.164;0.5125;-0.1435;-1;-1;-1
25257;25258088;6394336;8398304;-0.052;1.048;-0.276;0.1845;0.4305;-0.164;-1;-1;-1
25268;25268576;6392288;8398304;-0.052;1.048;-0.28;0.164;0.4715;-0.0615;-1;-1;-1
25280;25280784;6392288;8397792;-0.044;1.044;-0.284;0.1845;0.5125;-0.1025;-1;-1;-1
25292;25292976;6396896;8397792;-0.04;1.052;-0.268;0.123;0.5125;-0.123;-1;-1;-1
25303;25303448;6392800;8397792;-0.068;1.052;-0.288;0.164;0.492;-0.082;-1;-1;-1
25315;25315696;6389216;8397792;-0.052;1.044;-0.28;0.1435;0.451;-0.0615;-1;-1;-1
25327;25327920;6393312;8397792;-0.064;1.052;-0.296;0.164;0.4715;-0.1435;-1;-1;-1
25339;25340104;6393312;8397792;-0.048;1.044;-0.292;0.205;0.451;-0.082;-1;-1;-1
25350;25350536;6387680;8397792;-0.06;1.04;-0.328;0.1845;0.492;-0.082;-1;-1;-1
25362;25362736;6389728;8397792;-0.044;1.052;-0.276;0.1845;0.4715;-0.041;-1;-1;-1
25374;25374928;6389728;8397792;-0.064;1.052;-0.288;0.205;0.4715;-0.1435;-1;-1;-1
25387;25387144;6389728;8397792;-0.06;1.056;-0.276;0.1845;0.3895;-0.1435;-1;-1;-1
25399;25399360;6394848;8397792;-0.052;1.036;-0.26;0.1845;0.5125;-0.1845;-1;-1;-1
25411;25412440;6386656;8397792;-0.068;1.052;-0.284;0.2255;0.4715;-0.164;-1;-1;-1
25423;25424616;6393824;8397792;-0.052;1.04;-0.264;0.205;0.369;-0.082;-1;-1;-1
25434;25434224;6397408;8397792;-0.06;1.048;-0.268;0.246;0.451;-0.1025;-1;-1;-1
25446;25447248;6393824;8397792;-0.056;1.048;-0.276;0.123;0.5535;-0.1025;-1;-1;-1
25458;25459512;6396896;8397792;-0.056;1.04;-0.272;0.287;0.5125;-0.1845;-1;-1;-1
25470;25471704;6392288;8397792;-0.048;1.032;-0.264;0.123;0.492;-0.041;-1;-1;-1
25481;25481320;6390752;8397792;-0.068;1.056;-0.288;0.246;0.451;-0.123;-1;-1;-1
25493;25494360;6392288;8397280;-0.06;1.044;-0.28;0.1845;0.4715;-0.1845;-1;-1;-1
25505;25506520;6388704;8397280;-0.064;1.04;-0.284;0.1435;0.4715;-0.1435;-1;-1;-1
25516;25516104;6389728;8397280;-0.052;1.044;-0.264;0.164;0.5125;-0.082;-1;-1;-1
25528;25529104;6388192;8397280;-0.052;1.048;-0.272;0.164;0.492;-0.164;-1;-1;-1
25540;25541288;6396896;8397280;-0.064;1.056;-0.272;0.2255;0.4715;-0.164;-1;-1;-1
25552;25553512;6387680;8397280;-0.04;1.048;-0.26;0.2665;0.451;-0.1435;-1;-1;-1
25563;25563968;6395872;8397280;-0.04;1.052;-0.272;0.1025;0.5535;-0.164;-1;-1;-1
25575;25576192;6390752;8397280;-0.052;1.044;-0.264;0.2255;0.451;-0.164;-1;-1;-1
25587;25588408;6389728;8396768;-0.044;1.048;-0.272;0.205;0.492;-0.205;-1;-1;-1
25600;25600624;6392288;8396768;-0.04;1.056;-0.292;0.1435;0.492;-0.2255;-1;-1;-1
25612;25612832;6391264;8396768;-0.048;1.044;-0.28;0.1435;0.5535;-0.123;-1;-1;-1
25624;25625048;6391264;8396768;-0.048;1.044;-0.288;0.246;0.4715;-0.1025;-1;-1;-1
25636;25637256;6393824;8396768;-0.056;1.036;-0.288;0.2255;0.533;-0.164;-1;-1;-1
25647;25647736;6387680;8396768;-0.056;1.032;-0.268;0.205;0.574;-0.082;-1;-1;-1
25659;25659976;6392800;8396768;-0.04;1.036;-0.276;0.246;0.492;-0.1025;-1;-1;-1
25671;25672160;6389216;8396768;-0.048;1.052;-0.276;0.246;0.451;-0.205;-1;-1;-1
25683;25684368;6387168;8396768;-0.048;1.032;-0.272;0.1435;0.5125;-0.123;-1;-1;-1
25694;25694840;6389728;8396256;-0.056;1.04;-0.28;0.2665;0.4305;-0.123;-1;-1;-1
25706;25707072;6388704;8396256;-0.06;1.056;-0.276;0.4715;0.4715;-0.1435;-1;-1;-1
25718;25719256;6390752;8396256;-0.04;1.04;-0.284;0.164;0.4715;-0.1845;-1;-1;-1
25729;25729704;6393312;8396256;-0.036;1.048;-0.268;0.2255;0.4305;-0.123;-1;-1;-1
25741;25741952;6395360;8396256;-0.048;1.044;-0.272;0.205;0.451;-0.164;-1;-1;-1
25753;25754192;6389216;8396256;-0.048;1.028;-0.272;0.2255;0.451;-0.082;-1;-1;-1
25765;25766416;6387168;8396256;-0.048;1.036;-0.296;0.2255;0.5125;-0.1435;-1;-1;-1
25776;25776880;6380512;8396256;-0.068;1.052;-0.292;0.205;0.492;-0.205;-1;-1;-1
25788;25789960;6394336;8395744;-0.064;1.052;-0.28;0.123;0.4715;-0.0615;-1;-1;-1
25800;25801296;6388704;8395744;-0.056;1.048;-0.28;0.164;0.5125;-0.1025;-1;-1;-1
25812;25813480;6388704;8395744;-0.052;1.048;-0.272;0.205;0.4715;-0.164;-1;-1;-1
25823;25823944;6393824;8395744;-0.056;1.052;-0.264;0.2255;0.4305;-0.082;-1;-1;-1
25835;25836176;6387168;8395744;-0.064;1.06;-0.288;0.1845;0.451;-0.0615;-1;-1;-1
25847;25848408;6393824;8395744;-0.048;1.048;-0.276;0.2255;0.5125;-0.1435;-1;-1;-1
25858;25858880;6391776;8395744;-0.072;1.056;-0.276;0.2255;0.492;-0.041;-1;-1;-1
25870;25871072;6391264;8395744;-0.064;1.048;-0.268;0.1845;0.3895;-0.1025;-1;-1;-1
25882;25883280;6392288;8395744;-0.052;1.052;-0.284;0.2255;0.5125;-0.1435;-1;-1;-1
25894;25895504;6389216;8395744;-0.068;1.056;-0.268;0.1435;0.451;-0.1435;-1;-1;-1
25905;25905960;6394336;8395744;-0.056;1.048;-0.24;0.287;0.492;-0.1435;-1;-1;-1
25917;25918192;6392288;8395744;-0.068;1.056;-0.236;0.246;0.4305;-0.1025;-1;-1;-1
25929;25930408;6390240;8395744;-0.06;1.044;-0.264;0.2665;0.451;-0.123;-1;-1;-1
25942;25942672;6395360;8395744;-0.044;1.044;-0.272;0.164;0.492;-0.1025;-1;-1;-1
25954;25954904;6390240;8395744;-0.06;1.052;-0.268;0.2255;0.492;-0.0615;-1;-1;-1
25966;25967104;6390240;8395744;-0.048;1.048;-0.268;0.164;0.451;-0.123;-1;-1;-1
25978;25979272;6394336;8395744;-0.056;1.04;-0.264;0.1435;0.533;-0.1025;-1;-1;-1
25989;25989728;6391264;8395744;-0.056;1.044;-0.26;0.1435;0.41;-0.1025;-1;-1;-1
26001;26001936;6393312;8395744;-0.052;1.04;-0.288;0.2255;0.451;-0.1025;-1;-1;-1
26013;26014152;6388704;8395744;-0.056;1.036;-0.284;0.123;0.492;-0.123;-1;-1;-1
26025;26026368;6393824;8395744;-0.056;1.056;-0.272;0.2255;0.4305;-0.082;-1;-1;-1
26036;26036840;6394336;8395744;-0.052;1.048;-0.268;0.205;0.451;-0.1845;-1;-1;-1
26048;26049040;6393824;8395744;-0.056;1.036;-0.272;0.1025;0.5125;-0.1435;-1;-1;-1
26060;26061208;6393312;8395744;-0.052;1.036;-0.28;0.205;0.4305;-0.1845;-1;-1;-1
26071;26071648;6393312;8395744;-0.048;1.044;-0.276;0.1845;0.533;-0.1435;-1;-1;-1
26083;26083880;6385120;8395744;-0.056;1.044;-0.296;0.205;0.451;-0.041;-1;-1;-1
26095;26096088;6392800;8395232;-0.048;1.064;-0.276;0.1845;0.4715;-0.164;-1;-1;-1
26107;26108288;6393312;8395232;-0.06;1.052;-0.284;0.246;0.451;-0.164;-1;-1;-1
26118;26118728;6392288;8395232;-0.056;1.044;-0.276;0.164;0.492;-0.1435;-1;-1;-1
26130;26130936;6393824;8395232;-0.052;1.056;-0.284;0.1845;0.451;-0.164;-1;-1;-1
26142;26143144;6395360;8395232;-0.048;1.052;-0.268;0.246;0.4305;-0.082;-1;-1;-1
26155;26155344;6388192;8395232;-0.064;1.048;-0.272;0.1845;0.451;-0.123;-1;-1;-1
26167;26167552;6389728;8395232;-0.044;1.036;-0.268;0.164;0.451;-0.164;-1;-1;-1
26179;26179768;6388192;8395232;-0.056;1.052;-0.288;0.205;0.451;-0.041;-1;-1;-1
26191;26191960;6391264;8395232;-0.048;1.052;-0.28;0.164;0.492;-0.164;-1;-1;-1
26202;26202448;6392800;8395232;-0.04;1.056;-0.28;0.205;0.4715;-0.082;-1;-1;-1
26214;26214624;6393824;8395232;-0.052;1.032;-0.28;0.205;0.492;-0.1435;-1;-1;-1
26226;26226784;6391264;8395232;-0.056;1.048;-0.28;0.1845;0.4305;-0.082;-1;-1;-1
26238;26239864;6388704;8395232;-0.06;1.056;-0.276;0.287;0.451;-0.123;-1;-1;-1
26249;26249464;6394336;8395232;-0.048;1.052;-0.284;0.2255;0.4715;-0.082;-1;-1;-1
26261;26261616;6393312;8395232;-0.036;1.048;-0.268;0.2255;0.4715;-0.1025;-1;-1;-1
26273;26274664;6391776;8395232;-0.044;1.032;-0.28;0.1845;0.492;-0.1025;-1;-1;-1
26284;26284216;6392288;8395232;-0.044;1.044;-0.256;0.1845;0.492;-0.205;-1;-1;-1
26296;26296456;6396896;8395232;-0.052;1.052;-0.284;0.164;0.5535;-0.041;-1;-1;-1
26308;26308656;6392288;8394208;-0.068;1.048;-0.26;0.2665;0.4715;-0.123;-1;-1;-1
26320;26321688;6389728;8394208;-0.048;1.044;-0.272;0.205;0.5125;-0.1435;-1;-1;-1
26331;26331312;6389216;8394208;-0.044;1.036;-0.28;0.123;0.533;-0.1435;-1;-1;-1
26343;26343528;6392288;8394208;-0.052;1.044;-0.264;0.205;0.4715;-0.1025;-1;-1;-1
26355;26356576;6388704;8394208;-0.048;1.052;-0.296;0.1435;0.5125;-0.1025;-1;-1;-1
26368;26368792;6391264;8394208;-0.06;1.052;-0.276;0.205;0.4715;-0.164;-1;-1;-1
26380;26380976;6390752;8394208;-0.06;1.048;-0.272;0.246;0.492;-0.0205;-1;-1;-1
26392;26393176;6391264;8394208;-0.06;1.048;-0.284;0.1435;0.492;-0.0615;-1;-1;-1
26404;26405336;6391776;8393696;-0.052;1.06;-0.288;0.123;0.451;-0.0615;-1;-1;-1
26415;26415752;6394336;8393696;-0.048;1.04;-0.268;0.164;0.4715;-0.1025;-1;-1;-1
26427;26428016;6393824;8393696;-0.052;1.052;-0.276;0.246;0.451;-0.0615;-1;-1;-1
26439;26440264;6394848;8393696;-0.052;1.044;-0.276;0.123;0.492;-0.0615;-1;-1;-1
26451;26452456;6392288;8393696;-0.048;1.044;-0.276;0.1435;0.451;-0.123;-1;-1;-1
26462;26462920;6390240;8393696;-0.052;1.048;-0.3;0.123;0.492;-0.123;-1;-1;-1
26474;26475144;6395360;8393696;-0.048;1.032;-0.268;0.205;0.492;-0.164;-1;-1;-1
26486;26487336;6391264;8393696;-0.064;1.056;-0.272;0.205;0.492;-0.0205;-1;-1;-1
26497;26497784;6392800;8393696;-0.048;1.048;-0.268;0.164;0.4305;-0.164;-1;-1;-1
26509;26509992;6391264;8393696;-0.036;1.048;-0.264;0.2255;0.41;-0.164;-1;-1;-1
26521;26522264;6389216;8393696;-0.064;1.048;-0.28;0.2255;0.5125;-0.3075;-1;-1;-1
26533;26534504;6391264;8393696;-0.044;1.044;-0.288;0.1845;0.5125;-0.1435;-1;-1;-1
26544;26544944;6390752;8393696;-0.044;1.048;-0.276;0.1845;0.4715;-0.123;-1;-1;-1
26556;26557104;6390752;8393696;-0.048;1.044;-0.304;0.164;0.4715;-0.1025;-1;-1;-1
26568;26569320;6393312;8393696;-0.06;1.044;-0.28;0.2255;0.4305;-0.082;-1;-1;-1
26580;26581536;6385120;8393696;-0.068;1.06;-0.288;0.1435;0.4305;-0.1435;-1;-1;-1
26591;26591984;6387168;8393696;-0.044;1.044;-0.276;0.164;0.492;-0.123;-1;-1;-1
26603;26604168;6392288;8393184;-0.056;1.052;-0.276;0.164;0.4715;-0.123;-1;-1;-1
26615;26616392;6394336;8393184;-0.068;1.056;-0.272;0.1845;0.451;-0.041;-1;-1;-1
26626;26626832;6395360;8393184;-0.072;1.056;-0.264;0.246;0.4305;-0.164;-1;-1;-1
26638;26639024;6392288;8393184;-0.056;1.024;-0.272;0.123;0.4715;-0.082;-1;-1;-1
26650;26651232;6393824;8393184;-0.048;1.044;-0.276;0.123;0.4305;-0.1435;-1;-1;-1
26662;26663448;6392288;8393184;-0.06;1.044;-0.28;0.1845;0.5125;-0.1435;-1;-1;-1
26673;26673888;6394336;8393184;-0.056;1.04;-0.28;0.1025;0.533;-0.041;-1;-1;-1
26685;26686088;6393824;8393184;-0.052;1.044;-0.272;0.1435;0.5535;0.041;-1;-1;-1
26697;26698336;6394336;8393184;-0.06;1.06;-0.292;0.246;0.451;-0.0615;-1;-1;-1
26710;26710504;6390752;8393184;-0.052;1.052;-0.256;0.1435;0.533;-0.123;-1;-1;-1
26722;26722736;6388704;8393184;-0.056;1.044;-0.276;0.205;0.369;-0.1435;-1;-1;-1
26734;26734944;6394848;8393184;-0.06;1.056;-0.268;0.164;0.615;-0.041;-1;-1;-1
26746;26747168;6385120;8393184;-0.06;1.052;-0.252;0.1845;0.492;-0.0615;-1;-1;-1
26757;26757600;6394848;8393184;-0.056;1.044;-0.268;0.2255;0.5535;-0.082;-1;-1;-1
26769;26769808;6394336;8393184;-0.048;1.04;-0.268;0.164;0.533;-0.041;-1;-1;-1
26781;26781984;6391264;8393184;-0.064;1.044;-0.28;0.2255;0.451;-0.164;-1;-1;-1
26793;26794144;6392800;8393184;-0.048;1.04;-0.284;0.164;0.4715;-0.1435;-1;-1;-1
26804;26805488;6393824;8392672;-0.052;1.052;-0.28;0.205;0.451;-0.1025;-1;-1;-1
26816;26816848;6390752;8392672;-0.056;1.048;-0.276;0.205;0.451;-0.1435;-1;-1;-1
26828;26829048;6393312;8392672;-0.064;1.056;-0.272;0.164;0.4715;-0.082;-1;-1;-1
26839;26839504;6393824;8392672;-0.056;1.036;-0.28;0.123;0.492;-0.082;-1;-1;-1
26851;26851720;6390240;8392672;-0.06;1.056;-0.276;0.1845;0.451;-0.1025;-1;-1;-1
26863;26863904;6395360;8392672;-0.048;1.044;-0.276;0.1845;0.4715;-0.0615;-1;-1;-1
26875;26876120;6394848;8392672;-0.056;1.044;-0.292;0.164;0.5125;-0.1435;-1;-1;-1
26886;26886584;6393824;8392672;-0.052;1.048;-0.288;0.1845;0.451;-0.123;-1;-1;-1
26898;26898760;6394336;8392672;-0.052;1.048;-0.28;0.1845;0.4305;-0.123;-1;-1;-1
26910;26910976;6389728;8392160;-0.064;1.052;-0.256;0.164;0.4305;-0.041;-1;-1;-1
26923;26923192;6395360;8392160;-0.056;1.064;-0.296;0.287;0.4715;-0.1845;-1;-1;-1
26935;26935392;6393312;8392160;-0.048;1.048;-0.28;0.2255;0.451;-0.1025;-1;-1;-1
26947;26948464;6393312;8392160;-0.044;1.048;-0.264;0.246;0.492;-0.2665;-1;-1;-1
26959;26960680;6391776;8392160;-0.044;1.044;-0.276;0.164;0.492;-0.123;-1;-1;-1
26970;26970232;6396384;8392160;-0.056;1.044;-0.28;0.1435;0.492;-0.328;-1;-1;-1
26982;26982448;6390240;8392160;-0.036;1.052;-0.276;0.123;0.5125;-0.123;-1;-1;-1
26994;26995504;6394336;8392160;-0.064;1.052;-0.276;0.164;0.4715;-0.164;-1;-1;-1
27006;27007720;6393824;8392160;-0.036;1.024;-0.276;0.246;0.5125;-0.1435;-1;-1;-1
27017;27017360;6392800;8391648;-0.06;1.056;-0.288;0.205;0.4715;-0.082;-1;-1;-1
27029;27029568;6394336;8391648;-0.064;1.056;-0.28;0.1845;0.533;-0.205;-1;-1;-1
27041;27042664;6389216;8391648;-0.06;1.052;-0.276;0.2255;0.4305;-0.0615;-1;-1;-1
27052;27052288;6392288;8391648;-0.064;1.056;-0.268;0.2255;0.451;-0.123;-1;-1;-1
27064;27064464;6393824;8391648;-0.044;1.052;-0.28;0.2255;0.451;-0.1025;-1;-1;-1
27076;27076664;6393824;8391648;-0.052;1.048;-0.268;0.1845;0.533;-0.41;-1;-1;-1
27088;27089760;6393312;8391648;-0.036;1.052;-0.292;0.1025;0.615;-0.1025;-1;-1;-1
27099;27099336;6396896;8391648;-0.064;1.056;-0.268;0.2255;0.4715;-0.082;-1;-1;-1
27111;27111536;6388192;8391648;-0.06;1.044;-0.268;0.246;0.3895;-0.082;-1;-1;-1
27123;27123760;6393824;8391648;-0.06;1.036;-0.3;0.1435;0.4305;-0.1845;-1;-1;-1
27136;27136832;6395360;8391648;-0.052;1.052;-0.28;0.164;0.4715;-0.0205;-1;-1;-1
27148;27149032;6392288;8391648;-0.06;1.048;-0.272;0.164;0.451;-0.1025;-1;-1;-1
27160;27161240;6393824;8391648;-0.052;1.072;-0.276;0.246;0.5125;-0.123;-1;-1;-1
27172;27173432;6394848;8391648;-0.064;1.048;-0.288;0.1435;0.533;-0.082;-1;-1;-1
27183;27183856;6393312;8391648;-0.048;1.064;-0.24;0.1435;0.451;-0.1025;-1;-1;-1
27195;27196072;6390240;8391648;-0.056;1.052;-0.26;0.246;0.451;-0.205;-1;-1;-1
27207;27208296;6388192;8391648;-0.04;1.048;-0.276;0.1845;0.5125;-0.041;-1;-1;-1
27219;27220488;6391776;8391136;-0.06;1.052;-0.264;0.205;0.451;-0.1435;-1;-1;-1
27230;27230960;6393312;8391136;-0.064;1.056;-0.28;0.205;0.5125;-0.1435;-1;-1;-1
27242;27243152;6388704;8391136;-0.044;1.052;-0.26;0.2665;0.4305;-0.164;-1;-1;-1
27254;27255384;6391264;8391136;-0.056;1.04;-0.256;0.1845;0.4715;0.0615;-1;-1;-1
27265;27265832;6391776;8391136;-0.052;1.056;-0.272;0.1845;0.4715;-0.082;-1;-1;-1
27277;27278016;6389728;8391136;-0.044;1.044;-0.28;0.123;0.5125;-0.205;-1;-1;-1
27289;27290200;6393824;8391136;-0.048;1.052;-0.256;0.1435;0.5125;-0.164;-1;-1;-1
27301;27302368;6394848;8391136;-0.052;1.048;-0.28;0.1435;0.5125;-0.164;-1;-1;-1
27312;27312840;6391776;8391136;-0.052;1.048;-0.284;0.2255;0.5125;-0.041;-1;-1;-1
27324;27325088;6391264;8390624;-0.048;1.036;-0.276;0.2255;0.451;-0.205;-1;-1;-1
27336;27337328;6389728;8390624;-0.056;1.044;-0.272;0.2255;0.4715;-0.164;-1;-1;-1
27348;27349496;6392800;8390624;-0.04;1.032;-0.272;0.164;0.41;-0.0615;-1;-1;-1
27359;27359968;6393824;8390624;-0.06;1.048;-0.276;0.2255;0.533;-0.205;-1;-1;-1
27371;27372160;6391264;8390624;-0.056;1.052;-0.26;0.246;0.451;0;-1;-1;-1
27383;27384376;6393824;8390624;-0.052;1.044;-0.272;0.205;0.5125;-0.123;-1;-1;-1
27394;27394792;6392800;8390624;-0.052;1.052;-0.276;0.205;0.451;-0.1025;-1;-1;-1
27406;27406960;6394336;8390624;-0.06;1.056;-0.268;0.1435;0.4715;-0.123;-1;-1;-1
27418;27419152;6391776;8390624;-0.06;1.044;-0.232;0.1845;0.4715;-0.1845;-1;-1;-1
27430;27431320;6390240;8390624;-0.06;1.048;-0.284;0.2665;0.3895;-0.082;-1;-1;-1
27441;27441800;6391776;8390624;-0.052;1.048;-0.28;0.164;0.6355;-0.1025;-1;-1;-1
27453;27453992;6390240;8390624;-0.052;1.048;-0.268;0.246;0.4715;-0.0615;-1;-1;-1
27465;27466184;6391264;8390624;-0.06;1.044;-0.28;0.1845;0.492;-0.082;-1;-1;-1
27478;27478384;6393312;8390624;-0.072;1.06;-0.288;0.1845;0.4715;-0.1025;-1;-1;-1
27490;27490632;6394336;8390624;-0.048;1.048;-0.3;0.205;0.451;-0.2665;-1;-1;-1
27502;27502808;6391264;8390624;-0.052;1.052;-0.28;0.1435;0.451;-0.1845;-1;-1;-1
27514;27515024;6394336;8390624;-0.064;1.064;-0.276;0.205;0.451;-0.1845;-1;-1;-1
27525;27525504;6394848;8389600;-0.052;1.044;-0.272;0.1845;0.451;-0.1025;-1;-1;-1
27537;27537680;6395872;8389600;-0.06;1.044;-0.28;0.1845;0.6355;0.041;-1;-1;-1
27549;27549920;6391264;8389600;-0.036;1.04;-0.272;0.1435;0.533;-0.1845;-1;-1;-1
27561;27562104;6393824;8389600;-0.056;1.048;-0.26;0.287;0.451;-0.1435;-1;-1;-1
27572;27572576;6394336;8389600;-0.04;1.044;-0.284;0.164;0.4305;-0.0615;-1;-1;-1
27584;27584824;6396384;8389600;-0.052;1.048;-0.268;0.1845;0.533;-0.1025;-1;-1;-1
27596;27596984;6394336;8389600;-0.056;1.044;-0.264;0.205;0.451;-0.1025;-1;-1;-1
27607;27607392;6393824;8389600;-0.048;1.052;-0.268;0.1845;0.4715;-0.123;-1;-1;-1
27619;27619616;6393312;8389600;-0.06;1.044;-0.268;0.1845;0.4715;-0.1435;-1;-1;-1
27631;27631816;6393824;8389600;-0.048;1.044;-0.276;0.205;0.4715;-0.164;-1;-1;-1
27643;27643992;6392288;8389600;-0.052;1.056;-0.28;0.205;0.492;-0.1435;-1;-1;-1
27654;27654472;6395360;8389600;-0.06;1.056;-0.276;0.164;0.4715;-0.123;-1;-1;-1
27666;27666664;6391776;8389600;-0.04;1.028;-0.26;0.123;0.451;-0.1845;-1;-1;-1
27678;27678872;6386656;8389600;-0.036;1.04;-0.272;0.164;0.492;-0.164;-1;-1;-1
27691;27691064;6390752;8389600;-0.052;1.044;-0.268;0.1025;0.5125;-0.1435;-1;-1;-1
27703;27704144;6394336;8389600;-0.048;1.036;-0.276;0.1845;0.4305;-0.1435;-1;-1;-1
27715;27716368;6386144;8389600;-0.048;1.028;-0.26;0.164;0.492;-0.1435;-1;-1;-1
27727;27728576;6394336;8389088;-0.052;1.052;-0.28;0.123;0.533;-0.1435;-1;-1;-1
27738;27738232;6389216;8389088;-0.044;1.052;-0.284;0.1845;0.492;-0.1435;-1;-1;-1
27750;27751240;6394336;8389088;-0.06;1.06;-0.256;0.205;0.4715;-0.164;-1;-1;-1
27762;27763440;6394848;8389088;-0.016;1.044;-0.268;0.1845;0.492;-0.082;-1;-1;-1
27774;27775664;6389216;8389088;-0.052;1.06;-0.268;0.3075;0.3485;-0.0615;-1;-1;-1
27785;27785264;6391264;8389088;-0.06;1.052;-0.268;0.164;0.492;-0.082;-1;-1;-1
27797;27798312;6389216;8389088;-0.048;1.052;-0.28;0.0615;0.492;-0.041;-1;-1;-1
27809;27810472;6393824;8389088;-0.048;1.044;-0.264;0.328;0.5125;-0.205;-1;-1;-1
27820;27820104;6394336;8389088;-0.052;1.044;-0.256;0.2665;0.5125;-0.164;-1;-1;-1
27832;27832376;6392800;8388576;-0.072;1.032;-0.288;-0.0205;0.7175;-0.0615;-1;-1;-1
27844;27845424;6385120;8388576;-0.044;1.032;-0.284;0.246;0.4715;-0.1845;-1;-1;-1
27856;27857624;6391776;8388576;-0.044;1.036;-0.268;0.1845;0.492;-0.1025;-1;-1;-1
27867;27867256;6391264;8388576;-0.056;1.048;-0.288;0.2255;0.4715;-0.1435;-1;-1;-1
27879;27880280;6394848;8388576;-0.056;1.052;-0.284;0.123;0.451;-0.1025;-1;-1;-1
27891;27892440;6394848;8388576;-0.044;1.04;-0.304;0.205;0.3895;-0.164;-1;-1;-1
27904;27904592;6397920;8388576;-0.052;1.048;-0.276;0.164;0.451;-0.082;-1;-1;-1
27916;27916776;6392288;8388576;-0.056;1.048;-0.28;0.1845;0.4715;-0.1025;-1;-1;-1
27928;27929024;6396384;8388064;-0.052;1.052;-0.28;0.246;0.451;-0.0205;-1;-1;-1
27940;27941224;6389728;8388064;-0.068;1.068;-0.308;0.1435;0.451;-0.164;-1;-1;-1
27951;27951680;6389216;8388064;-0.056;1.052;-0.26;0.1845;0.533;-0.123;-1;-1;-1
27963;27963896;6392288;8388064;-0.052;1.036;-0.332;0.1845;0.492;-0.123;-1;-1;-1
27975;27976072;6391776;8388064;-0.04;1.044;-0.268;0.164;0.5125;-0.1025;-1;-1;-1
27987;27988280;6393824;8388064;-0.064;1.044;-0.26;0.1845;0.533;-0.041;-1;-1;-1
27998;27998720;6394336;8388064;-0.06;1.048;-0.296;0.2255;0.4715;-0.041;-1;-1;-1
28010;28010920;6387680;8388064;-0.04;1.036;-0.276;0.205;0.41;0;-1;-1;-1
28022;28023096;6394848;8388064;-0.056;1.052;-0.264;0.205;0.41;-0.0205;-1;-1;-1
28033;28033536;6394848;8387040;-0.04;1.056;-0.284;0.164;0.451;-0.0615;-1;-1;-1
28045;28045704;6392800;8387040;-0.056;1.044;-0.256;0.246;0.3895;-0.164;-1;-1;-1
28057;28057952;6393824;8387040;-0.064;1.048;-0.28;0.123;0.4715;-0.1845;-1;-1;-1
28069;28070224;6390240;8387040;-0.06;1.044;-0.28;0.2255;0.451;-0.082;-1;-1;-1
28080;28080672;6391264;8387040;-0.056;1.052;-0.272;0.164;0.492;-0.082;-1;-1;-1
28092;28092824;6396896;8387040;-0.064;1.052;-0.292;0.205;0.4715;-0.164;-1;-1;-1
28104;28105032;6391776;8387040;-0.056;1.04;-0.268;0.2665;0.451;-0.123;-1;-1;-1
28116;28117248;6391776;8387040;-0.052;1.044;-0.284;0.205;0.4305;-0.041;-1;-1;-1
28127;28128576;6392288;8387552;-0.056;1.044;-0.268;0.1435;0.492;-0.1025;-1;-1;-1
28139;28139880;6392800;8387552;-0.052;1.04;-0.272;0.1845;0.533;-0.082;-1;-1;-1
28151;28152080;6392800;8387552;-0.056;1.04;-0.268;0.246;0.451;-0.164;-1;-1;-1
28162;28162512;6393824;8387552;-0.056;1.048;-0.276;0.082;0.492;0;-1;-1;-1
28174;28174728;6393824;8387552;-0.064;1.04;-0.284;0.1435;0.3075;-0.082;-1;-1;-1
28186;28186960;6389216;8387552;-0.048;1.052;-0.28;0.205;0.451;-0.0615;-1;-1;-1
28198;28199168;6396384;8387552;-0.064;1.056;-0.272;0.2255;0.451;-0.0205;-1;-1;-1
28209;28209600;6391776;8387552;-0.048;1.048;-0.276;0.1845;0.3075;-0.2255;-1;-1;-1
28221;28221808;6391776;8387552;-0.056;1.044;-0.276;0.164;0.451;-0.164;-1;-1;-1
28233;28234000;6390240;8386528;-0.052;1.048;-0.268;0.1845;0.4305;-0.164;-1;-1;-1
28246;28246184;6390752;8386528;-0.04;1.052;-0.3;0.2665;0.451;-0.1025;-1;-1;-1
28258;28258384;6390752;8386528;-0.048;1.048;-0.288;0.1025;0.533;-0.0205;-1;-1;-1
28270;28271416;6396384;8386528;-0.064;1.072;-0.272;0.369;0.369;-0.0615;-1;-1;-1
28282;28283576;6391264;8386528;-0.044;1.048;-0.28;0.205;0.533;-0.041;-1;-1;-1
28293;28293208;6392288;8386528;-0.056;1.068;-0.308;0.0615;0.5945;-0.1025;-1;-1;-1
28305;28306296;6393824;8386528;-0.052;1.048;-0.296;0.164;0.451;-0.0205;-1;-1;-1
28317;28318464;6393312;8386528;-0.064;1.052;-0.268;0.164;0.5125;-0.123;-1;-1;-1
28329;28330712;6393824;8386528;-0.06;1.048;-0.26;0.123;0.533;-0.1435;-1;-1;-1
28340;28340320;6393312;8387040;-0.056;1.056;-0.28;0.164;0.4715;-0.205;-1;-1;-1
28352;28352592;6394336;8387040;-0.056;1.052;-0.284;0.1025;0.492;-0.1025;-1;-1;-1
28364;28365656;6393312;8387040;-0.056;1.044;-0.292;0.1845;0.492;-0.082;-1;-1;-1
28375;28375264;6389216;8387040;-0.06;1.048;-0.284;0.164;0.492;-0.1435;-1;-1;-1
28387;28387472;6390752;8387040;-0.04;1.04;-0.264;0.1435;0.4715;-0.123;-1;-1;-1
28399;28399704;6392800;8387040;-0.056;1.04;-0.268;0.205;0.492;-0.0615;-1;-1;-1
28411;28412784;6390240;8387040;-0.056;1.044;-0.272;0.1845;0.4305;-0.123;-1;-1;-1
28422;28422376;6394848;8387040;-0.044;1.036;-0.288;0.1845;0.4305;-0.0615;-1;-1;-1
28434;28434576;6393312;8387040;-0.048;1.04;-0.272;0.164;0.4715;-0.082;-1;-1;-1
28446;28446808;6390240;8386528;-0.052;1.052;-0.288;0.164;0.451;-0.041;-1;-1;-1
28459;28459912;6391264;8386528;-0.048;1.04;-0.28;0.1025;0.451;-0.0615;-1;-1;-1
28471;28472120;6392288;8386528;-0.06;1.044;-0.268;0.2255;0.4715;-0.1025;-1;-1;-1
28483;28484296;6391776;8386528;-0.064;1.052;-0.288;0.164;0.5125;-0.1435;-1;-1;-1
28495;28496512;6395872;8386528;-0.052;1.048;-0.28;0.1845;0.492;-0.082;-1;-1;-1
28506;28506976;6392800;8386528;-0.052;1.048;-0.308;0.3075;0.4305;-0.164;-1;-1;-1
28518;28519200;6393824;8386528;-0.06;1.04;-0.268;0.164;0.4715;-0.123;-1;-1;-1
28530;28531344;6390240;8386528;-0.056;1.056;-0.288;0.1845;0.4715;-0.1435;-1;-1;-1
28542;28543584;6392800;8385504;-0.06;1.048;-0.276;0.2255;0.492;-0.164;-1;-1;-1
28553;28554040;6392800;8385504;-0.056;1.044;-0.268;0.164;0.533;-0.1025;-1;-1;-1
28565;28566248;6395360;8385504;-0.068;1.068;-0.296;0.246;0.4715;-0.123;-1;-1;-1
28577;28578472;6393312;8385504;-0.056;1.044;-0.288;0.0615;0.492;-0.123;-1;-1;-1
28588;28588088;6394848;8385504;-0.052;1.044;-0.284;0.246;0.492;-0.123;-1;-1;-1
28600;28601144;6389216;8385504;-0.048;1.048;-0.272;0.205;0.492;-0.1025;-1;-1;-1
28612;28613344;6394848;8385504;-0.052;1.044;-0.28;0.1845;0.4305;-0.0205;-1;-1;-1
28624;28625552;6396384;8385504;-0.048;1.052;-0.276;0.328;0.41;-0.0615;-1;-1;-1
28635;28636032;6394848;8385504;-0.064;1.048;-0.28;0.2255;0.4305;-0.123;-1;-1;-1
28647;28648248;6389216;8385504;-0.056;1.052;-0.288;0.1845;0.4305;-0.164;-1;-1;-1
28659;28660448;6392288;8385504;-0.06;1.044;-0.272;0.205;0.492;-0.1025;-1;-1;-1
28672;28672688;6396384;8385504;-0.052;1.048;-0.28;0.205;0.451;-0.082;-1;-1;-1
28684;28684896;6394848;8385504;-0.052;1.04;-0.284;0.164;0.5125;-0.1025;-1;-1;-1
28696;28697072;6389216;8385504;-0.048;1.048;-0.288;0.205;0.4715;-0.2665;-1;-1;-1
28708;28709312;6395872;8385504;-0.056;1.056;-0.28;0.2665;0.4305;-0.1435;-1;-1;-1
28719;28719760;6392800;8385504;-0.052;1.04;-0.248;0.2665;0.4715;-0.164;-1;-1;-1
28731;28731944;6391776;8385504;-0.052;1.052;-0.276;0.164;0.451;-0.0615;-1;-1;-1
28743;28744200;6395360;8384992;-0.06;1.052;-0.284;0.164;0.492;-0.1025;-1;-1;-1
28755;28756384;6391776;8384992;-0.072;1.044;-0.272;0.246;0.4715;-0.082;-1;-1;-1
28766;28766824;6387168;8384992;-0.056;1.048;-0.272;0.164;0.492;-0.1435;-1;-1;-1
28778;28779008;6394336;8384992;-0.048;1.044;-0.276;0.1845;0.4715;-0.082;-1;-1;-1
28790;28791216;6392800;8384992;-0.048;1.056;-0.272;0.2255;0.41;-0.164;-1;-1;-1
28801;28801680;6392288;8384992;-0.056;1.032;-0.268;0.2255;0.4715;-0.041;-1;-1;-1
28813;28813896;6394848;8384992;-0.036;1.052;-0.288;0.164;0.533;-0.0205;-1;-1;-1
28825;28826096;6390752;8384992;-0.072;1.04;-0.272;0.164;0.4715;-0.1435;-1;-1;-1
28837;28838280;6394336;8384992;-0.064;1.06;-0.284;0.164;0.492;-0.1025;-1;-1;-1
28848;28848776;6391264;8384992;-0.06;1.048;-0.296;0.164;0.4715;-0.205;-1;-1;-1
28860;28860992;6398432;8384992;-0.04;1.048;-0.288;0.1435;0.492;-0.041;-1;-1;-1
28872;28873248;6394336;8384992;-0.064;1.048;-0.28;0.2255;0.533;-0.205;-1;-1;-1
28884;28885440;6388192;8384992;-0.048;1.048;-0.28;0.1435;0.574;0;-1;-1;-1
28895;28895896;6387680;8384992;-0.056;1.052;-0.264;0.246;0.369;-0.1435;-1;-1;-1
28907;28908144;6392288;8384992;-0.044;1.052;-0.284;0.205;0.492;-0.0615;-1;-1;-1
28919;28920320;6392288;8384992;-0.064;1.064;-0.288;0.205;0.4715;-0.164;-1;-1;-1
28930;28930736;6392288;8384992;-0.052;1.052;-0.272;0.164;0.451;-0.1025;-1;-1;-1
28942;28943840;6389728;8383968;-0.056;1.048;-0.268;0.1435;0.451;-0.0615;-1;-1;-1
28954;28955168;6390240;8383968;-0.048;1.052;-0.264;0.1845;0.5125;-0.1025;-1;-1;-1
28966;28967376;6394848;8383968;-0.048;1.032;-0.264;0.246;0.451;-0.164;-1;-1;-1
28977;28977840;6395872;8383968;-0.052;1.052;-0.256;0.2255;0.451;0.041;-1;-1;-1
28989;28990064;6394336;8383968;-0.056;1.048;-0.276;0.164;0.533;-0.0615;-1;-1;-1
29001;29002256;6388704;8383968;-0.04;1.016;-0.28;0.205;0.451;-0.123;-1;-1;-1
29014;29014480;6391264;8383968;-0.04;1.052;-0.284;0.1845;0.4715;-0.123;-1;-1;-1
29026;29026688;6395360;8383968;-0.044;1.04;-0.26;0.205;0.492;-0.1845;-1;-1;-1
29038;29038912;6397408;8383968;-0.048;1.044;-0.284;0.1845;0.5125;-0.1845;-1;-1;-1
29050;29051152;6390752;8383968;-0.056;1.052;-0.26;0.2255;0.492;-0.2255;-1;-1;-1
29061;29061568;6396384;8383968;-0.06;1.048;-0.28;0.1435;0.492;-0.1435;-1;-1;-1
29073;29073776;6393824;8383968;-0.056;1.036;-0.28;0.164;0.5125;-0.1435;-1;-1;-1
29085;29086000;6395872;8383968;-0.064;1.044;-0.264;0.205;0.5125;-0.164;-1;-1;-1
29097;29098176;6393312;8383968;-0.052;1.044;-0.272;0.1845;0.492;-0.1025;-1;-1;-1
29108;29108616;6391776;8383968;-0.032;1.06;-0.276;0.205;0.492;-0.1025;-1;-1;-1
29120;29120880;6398432;8383968;-0.056;1.048;-0.272;0.246;0.492;-0.0615;-1;-1;-1
29132;29133104;6395872;8383968;-0.044;1.052;-0.272;0.164;0.4305;-0.123;-1;-1;-1
29143;29143576;6389728;8383968;-0.036;1.036;-0.28;0.164;0.492;-0.1025;-1;-1;-1
29155;29155792;6397920;8383456;-0.06;1.056;-0.252;0.246;0.4305;-0.123;-1;-1;-1
29167;29167992;6392800;8383456;-0.052;1.048;-0.268;0.205;0.451;-0.1025;-1;-1;-1
29179;29180232;6394848;8383456;-0.06;1.04;-0.276;0.1845;0.5535;-0.0615;-1;-1;-1
29190;29190696;6396896;8383456;-0.052;1.048;-0.276;0.246;0.41;-0.1025;-1;-1;-1
29202;29202872;6395360;8383456;-0.056;1.048;-0.284;0.1845;0.5125;-0.123;-1;-1;-1
29214;29215080;6392800;8383456;-0.044;1.036;-0.268;0.2665;0.4305;-0.1845;-1;-1;-1
29227;29227280;6393824;8383456;-0.052;1.048;-0.292;0.246;0.41;-0.123;-1;-1;-1
29239;29239480;6389216;8383456;-0.06;1.044;-0.272;0.205;0.5125;-0.164;-1;-1;-1
29251;29251664;6389728;8383456;-0.052;1.06;-0.308;0.1845;0.451;-0.0615;-1;-1;-1
29263;29264736;6394848;8383456;-0.056;1.036;-0.264;0.164;0.4715;-0.1025;-1;-1;-1
29274;29274296;6394336;8383456;-0.06;1.048;-0.292;0.328;0.451;-0.164;-1;-1;-1
29286;29286512;6393312;8383456;-0.056;1.06;-0.284;0.1845;0.492;0.0615;-1;-1;-1
29298;29298752;6390240;8383456;-0.072;1.048;-0.284;0.164;0.533;-0.1025;-1;-1;-1
29310;29311768;6394848;8383456;-0.06;1.044;-0.288;0.2255;0.492;-0.0205;-1;-1;-1
29321;29321360;6398432;8383456;-0.044;1.04;-0.268;0.1435;0.533;-0.1025;-1;-1;-1
29333;29333584;6391264;8383456;-0.04;1.036;-0.3;0.1845;0.5125;-0.1025;-1;-1;-1
29345;29345864;6390752;8383456;-0.048;1.044;-0.272;0.246;0.4305;-0.0615;-1;-1;-1
29356;29356360;6395872;8383456;-0.06;1.048;-0.272;0.1845;0.5125;-0.123;-1;-1;-1
29368;29368552;6390752;8383456;-0.048;1.044;-0.268;0.164;0.4715;-0.123;-1;-1;-1
29380;29380752;6394848;8383456;-0.056;1.04;-0.276;0.1845;0.492;-0.123;-1;-1;-1
29392;29392968;6394336;8383456;-0.044;1.04;-0.264;0.205;0.451;-0.205;-1;-1;-1
29403;29403416;6393824;8383456;-0.032;1.036;-0.264;0.1845;0.4305;-0.082;-1;-1;-1
29415;29415592;6392800;8383456;-0.052;1.04;-0.284;0.246;0.451;-0.123;-1;-1;-1
29427;29427784;6392288;8383456;-0.056;1.052;-0.268;0.205;0.4715;-0.1025;-1;-1;-1
29440;29440832;6394848;8383456;-0.068;1.056;-0.232;0.205;0.492;0.041;-1;-1;-1
29452;29453008;6393312;8382944;-0.06;1.04;-0.288;0.1845;0.4715;-0.1025;-1;-1;-1
29464;29465168;6394336;8382944;-0.052;1.056;-0.276;0.2255;0.4715;-0.1025;-1;-1;-1
29476;29477360;6395872;8382944;-0.052;1.044;-0.264;0.164;0.492;-0.123;-1;-1;-1
29487;29487840;6393824;8382944;-0.052;1.044;-0.284;0.205;0.492;-0.1435;-1;-1;-1
29499;29500072;6397408;8382944;-0.056;1.048;-0.272;0.1845;0.492;-0.1435;-1;-1;-1
29511;29512312;6396896;8382944;-0.06;1.056;-0.268;0.1845;0.5125;-0.2665;-1;-1;-1
29523;29524504;6393312;8382944;-0.052;1.048;-0.28;0.2255;0.451;-0.123;-1;-1;-1
29534;29534920;6390240;8382944;-0.048;1.04;-0.272;0.205;0.492;-0.1025;-1;-1;-1
29546;29547168;6394336;8382944;-0.052;1.048;-0.28;0.205;0.5535;-0.205;-1;-1;-1
29558;29559392;6395872;8382944;-0.06;1.044;-0.288;0.2255;0.492;0.1435;-1;-1;-1
29569;29569848;6396384;8382944;-0.048;1.056;-0.268;0.246;0.451;-0.1435;-1;-1;-1
29581;29582088;6392800;8382944;-0.056;1.052;-0.276;0.287;0.451;-0.0615;-1;-1;-1
29593;29594240;6390240;8382944;-0.044;1.044;-0.28;0.287;0.4715;-0.164;-1;-1;-1
29605;29606448;6392288;8382944;-0.056;1.064;-0.32;0.1845;0.4305;-0.0205;-1;-1;-1
29616;29616896;6394848;8382944;-0.044;1.056;-0.24;0.2255;0.4305;-0.123;-1;-1;-1
29628;29629096;6391776;8382944;-0.048;1.044;-0.256;0.2255;0.4305;-0.2255;-1;-1;-1
29640;29641368;6394848;8382944;-0.052;1.048;-0.276;0.1845;0.492;-0.164;-1;-1;-1
29652;29653584;6392800;8382944;-0.06;1.06;-0.276;0.164;0.492;-0.205;-1;-1;-1
29663;29664000;6394336;8382432;-0.052;1.044;-0.276;0.205;0.4715;-0.0615;-1;-1;-1
29675;29676192;6394336;8382432;-0.052;1.052;-0.26;0.2255;0.4715;-0.0615;-1;-1;-1
29687;29688424;6392800;8382432;-0.06;1.048;-0.284;0.123;0.4305;-0.1435;-1;-1;-1
29698;29698888;6396896;8382432;-0.056;1.044;-0.272;0.1435;0.451;-0.0615;-1;-1;-1
29710;29711072;6393824;8382432;-0.036;1.068;-0.264;0.1845;0.4715;-0.1435;-1;-1;-1
29722;29723264;6395872;8382432;-0.068;1.044;-0.252;0.164;0.4715;-0.1435;-1;-1;-1
29734;29735488;6392800;8382432;-0.072;1.052;-0.272;0.287;0.41;-0.1435;-1;-1;-1
29745;29745928;6394336;8382432;-0.064;1.048;-0.272;0.164;0.4715;-0.0205;-1;-1;-1
29757;29759008;6392800;8382432;-0.052;1.048;-0.264;0.1845;0.4715;-0.1845;-1;-1;-1
29769;29770352;6388192;8382432;-0.056;1.048;-0.272;0.1845;0.574;-0.1025;-1;-1;-1
29782;29782616;6394848;8382432;-0.052;1.048;-0.272;0.205;0.4305;-0.1025;-1;-1;-1
29794;29794792;6391264;8382432;-0.06;1.048;-0.276;0.1845;0.533;-0.082;-1;-1;-1
29806;29807008;6394336;8382432;-0.056;1.048;-0.292;0.1845;0.4715;-0.0615;-1;-1;-1
29818;29819216;6391264;8382432;-0.032;1.044;-0.264;0.2255;0.451;-0.1845;-1;-1;-1
29829;29829680;6391264;8382432;-0.036;1.04;-0.272;0.2255;0.5125;-0.1025;-1;-1;-1
29841;29841840;6395872;8382432;-0.056;1.04;-0.276;0.2665;0.5125;-0.1845;-1;-1;-1
29853;29854056;6394848;8382432;-0.056;1.052;-0.272;0.1845;0.451;-0.082;-1;-1;-1
29865;29866304;6394848;8381920;-0.064;1.052;-0.272;0.1845;0.4715;-0.1025;-1;-1;-1
29876;29876720;6392800;8381920;-0.056;1.048;-0.264;0.1845;0.492;-0.1025;-1;-1;-1
29888;29888904;6394848;8381920;-0.06;1.048;-0.276;0.164;0.4715;0.041;-1;-1;-1
29900;29901152;6396896;8381920;-0.036;1.04;-0.272;0.205;0.4715;-0.041;-1;-1;-1
29911;29911600;6394336;8381920;-0.056;1.056;-0.284;0.164;0.492;-0.1025;-1;-1;-1
29923;29923832;6396384;8381920;-0.048;1.04;-0.292;0.2255;0.369;-0.205;-1;-1;-1
29935;29936032;6389216;8381920;-0.048;1.032;-0.28;0.164;0.4715;-0.1435;-1;-1;-1
29947;29948232;6394848;8381920;-0.06;1.056;-0.272;0.2665;0.492;-0.164;-1;-1;-1
29958;29958720;6391264;8381920;-0.06;1.056;-0.276;0.1845;0.5535;-0.123;-1;-1;-1
29970;29970896;6394848;8381920;-0.052;1.04;-0.268;0.1845;0.451;-0.1435;-1;-1;-1
29982;29983104;6393312;8381920;-0.064;1.048;-0.28;0.164;0.492;-0.1435;-1;-1;-1
29995;29995312;6388192;8381920;-0.052;1.048;-0.272;0.2255;0.4715;-0.1435;-1;-1;-1
30007;30007528;6393312;8381920;-0.056;1.056;-0.276;0.164;0.492;-0.041;-1;-1;-1
